timestamp,accel_x,accel_y,accel_z,accel_rms,gyro_x,gyro_y,gyro_z,gyro_rms
1781025872.312957,-0.0488281175494194,0.22412109375,0.9672850966453552,0.9941101085490129,0.23651123046875,1.45721435546875,0.0171661376953125,1.4763827133251801
1781025872.32363,-0.0556640587747097,0.2387695163488388,0.9648436903953552,0.9955062612924445,0.11444091796875,1.94549560546875,-0.4711151123046875,2.0049935969088795
1781025872.334303,-0.0771484300494194,0.234375,0.9487304091453552,0.9802922575034464,0.1773834228515625,1.3332366943359375,-0.5283355712890625,1.445034061091881
1781025872.342295,-0.0546874962747097,0.2358398288488388,0.9565429091453552,0.9867043549901385,0.1773834228515625,1.3332366943359375,-0.3452301025390625,1.388585174026241
1781025872.350286,-0.07080078125,0.2314452975988388,0.9609374403953552,0.9909492624548455,-0.3719329833984375,1.0280609130859375,-0.5283355712890625,1.214241269700587
1781025872.358277,-0.0683593675494194,0.2177734375,0.9697265028953552,0.9962267631568519,-0.74005126953125,0.60272216796875,-0.2231597900390625,0.9801786496277316
1781025872.366268,-0.06689453125,0.2260742038488388,0.9746093153953552,1.0027201711407059,-0.4940032958984375,0.1773834228515625,-0.0400543212890625,0.5264109456641103
1781025872.376932,-0.0737304612994194,0.208984375,0.9648436903953552,0.9899666644959788,-0.797271728515625,-0.31280517578125,0.0820159912109375,0.8603580126320344
1781025872.387596,-0.0644531175494194,0.2158203125,0.9619140028953552,0.9879327713035955,-0.675201416015625,-0.19073486328125,-0.0400543212890625,0.7027667386226739
1781025872.39826,-0.0712890625,0.2270507663488388,0.9638671278953552,0.9928111709529486,-0.92315673828125,-0.49591064453125,0.0171661376953125,1.048065077691672
1781025872.408936,-0.07080078125,0.22509765625,0.9614257216453552,0.989960162691482,-0.4940032958984375,-0.7419586181640625,0.5054473876953125,1.0247043032770282
1781025872.419613,-0.0751953125,0.2133788913488388,0.9580077528953552,0.9843595587501754,-0.43487548828125,-0.92315673828125,0.5054473876953125,1.1387765871627091
1781025872.43029,-0.0727538987994194,0.2275390625,0.9570311903953552,0.9863953842873788,-0.25177001953125,-0.86212158203125,0.5702972412109375,1.0638988242646186
1781025872.438282,-0.0727538987994194,0.22509765625,0.9672850966453552,0.9957924195493625,0.05340576171875,-0.86212158203125,0.5702972412109375,1.0350578442394567
1781025872.446272,-0.0581054612994194,0.22802734375,0.9697265028953552,0.997868831334136,0.1163482666015625,-0.9822845458984375,0.5054473876953125,1.1108091240083076
1781025872.454262,-0.0629882737994194,0.21435546875,0.9702147841453552,0.9956066075481224,0.11444091796875,-0.67901611328125,0.5702972412109375,0.8940909065267981
1781025872.462252,-0.06298828125,0.2211913913488388,0.9843749403953552,1.010884354642025,0.2994537353515625,-0.8640289306640625,0.3871917724609375,0.9930438063358179
1781025872.472919,-0.0590820275247097,0.2319335788488388,0.9580077528953552,0.9874526447286822,0.1773834228515625,-0.4367828369140625,0.5702972412109375,0.7399209881183524
1781025872.483586,-0.0600585862994194,0.22998046875,0.9575194716453552,0.9865807561344153,0.1773834228515625,-0.1316070556640625,0.3871917724609375,0.44576088260921043
1781025872.494253,-0.0483398362994194,0.22216796875,0.9624022841453552,0.9888950918273144,0.41961669921875,-0.37384033203125,0.4482269287109375,0.7188477917738316
1781025872.504925,-0.0629882737994194,0.21533203125,0.9580077528953552,0.9839279754769094,0.484466552734375,-0.19073486328125,0.6923675537109375,0.8662912086711454
1781025872.515596,-0.0585937425494194,0.21923828125,0.9667968153953552,0.9930733773946426,0.4825592041015625,-0.1316070556640625,0.6313323974609375,0.805459122890462
1781025872.526267,-0.0693359300494194,0.23486328125,0.9604491591453552,0.9911764824582726,0.35858154296875,-0.12969970703125,0.8106231689453125,0.895830708891352
1781025872.534265,-0.0502929650247097,0.2260742038488388,0.9692382216453552,0.9965247905973608,0.60272216796875,-0.00762939453125,0.5702972412109375,0.8298018816287835
1781025872.542265,-0.0566406212747097,0.2314452975988388,0.9531249403953552,0.982457244750452,0.4825592041015625,0.4825592041015625,0.3871917724609375,0.784630001712724
1781025872.550265,-0.0624999962747097,0.2319335788488388,0.9667968153953552,0.9961905022587647,0.35858154296875,0.90789794921875,0.2040863037109375,0.9972515372341396
1781025872.558265,-0.06494140625,0.2236327975988388,0.9560546278953552,0.9840068424191657,0.54168701171875,0.72479248046875,0.0171661376953125,0.9050102953514987
1781025872.56894,-0.0727538987994194,0.24267578125,0.9541015028953552,0.9871648000323905,0.2994537353515625,0.7839202880859375,0.2040863037109375,0.8636288421834555
1781025872.579615,-0.06787109375,0.2314452975988388,0.9570311903953552,0.9869559820665696,0.05340576171875,0.48065185546875,0.0820159912109375,0.49051503989645884
1781025872.59029,-0.0576171875,0.2255859375,0.9545897841453552,0.9825733618859408,-0.0667572021484375,0.4177093505859375,0.0171661376953125,0.42335836107131203
1781025872.600941,-0.06298828125,0.2260742038488388,0.9565429091453552,0.9849118774067935,-0.797271728515625,0.17547607421875,0.8754730224609375,1.197032612241791
1781025872.611595,-0.0678710862994194,0.22412109375,0.9628905653953552,0.9909566034628087,-0.74005126953125,-0.31280517578125,0.7534027099609375,1.1014257137487022
1781025872.622249,-0.0732421800494194,0.220703125,0.9599608778953552,0.987724239559189,-0.7991790771484375,-0.1316070556640625,0.6313323974609375,1.0269314536697018
1781025872.630235,-0.0590820237994194,0.21533203125,0.9565429091453552,0.9822590830604446,-0.7991790771484375,-0.2536773681640625,0.5702972412109375,1.0140406046126949
1781025872.63822,-0.0561523400247097,0.2226562350988388,0.9599608778953552,0.9870429430416192,-0.9822845458984375,-0.4367828369140625,0.6313323974609375,1.2466927335223268
1781025872.646205,-0.0703125,0.2177734225988388,0.9692382216453552,0.9958874642975044,-0.6771087646484375,-0.3108978271484375,0.3871917724609375,0.8396732738099952
1781025872.65419,-0.0712890625,0.2187499850988388,0.9594725966453552,0.9866718553431286,-0.61798095703125,-0.25177001953125,-0.0400543212890625,0.6685005270319188
1781025872.664875,-0.0605468675494194,0.224609375,0.9604491591453552,0.9882195514211188,-0.61798095703125,-0.61798095703125,0.2651214599609375,0.9132854510164597
1781025872.67556,-0.0605468712747097,0.2275390475988388,0.9716796278953552,0.99980060065505,-0.308990478515625,-0.49591064453125,0.1430511474609375,0.6015530849082279
1781025872.686245,-0.052734375,0.2158203125,0.9565429091453552,0.9820049178239881,-0.2498626708984375,-0.4367828369140625,0.0171661376953125,0.5034930756371648
1781025872.696917,-0.0595703050494194,0.2099609375,0.9633788466453552,0.9877909792477833,0.1163482666015625,-0.5588531494140625,-0.1659393310546875,0.5944658302561064
1781025872.707589,-0.046875,0.22412109375,0.9541015028953552,0.9811917285199013,0.23651123046875,-0.55694580078125,-0.4711151123046875,0.7668608975476375
1781025872.718261,-0.0585937425494194,0.23876953125,0.9599608778953552,0.9909434912288961,0.2994537353515625,-0.3757476806640625,-0.0400543212890625,0.4821443848001897
1781025872.726276,-0.0673828050494194,0.2275390625,0.9677733778953552,0.9964435650565932,0.6046295166015625,-0.2536773681640625,-0.2231597900390625,0.6926249716511548
1781025872.734291,-0.06689453125,0.21484375,0.9545897841453552,0.98075194173649,0.5435943603515625,-0.1316070556640625,-0.1010894775390625,0.5683610896038791
1781025872.742306,-0.0590820275247097,0.2177734225988388,0.9599608778953552,0.9861241487036326,-0.0667572021484375,-0.1316070556640625,0.0171661376953125,0.1485651958657391
1781025872.750321,-0.0751953125,0.2177734225988388,0.9638671278953552,0.9910193937807807,-0.003814697265625,-0.19073486328125,-0.0400543212890625,0.19493252329991767
1781025872.760996,-0.0605468712747097,0.2265624850988388,0.9526366591453552,0.9810775135650299,0.23651123046875,-0.37384033203125,-0.0400543212890625,0.4441829630287556
1781025872.771671,-0.0561523400247097,0.2187499850988388,0.9780272841453552,1.0037639213499019,-0.0667572021484375,-0.3108978271484375,-0.3452301025390625,0.469358931590141
1781025872.782346,-0.0600585900247097,0.2280273288488388,0.9672850966453552,0.9956123518367512,-0.1888275146484375,-0.3757476806640625,-0.1659393310546875,0.4520818636083573
1781025872.79298,-0.05712890625,0.21435546875,0.9667968153953552,0.9919213986858808,-0.6771087646484375,-0.6771087646484375,-0.3452301025390625,1.0179078455472272
1781025872.803615,-0.0556640587747097,0.2226562350988388,0.9511718153953552,0.9784692682297995,-0.43487548828125,-0.31280517578125,-0.4711151123046875,0.7133815370089505
1781025872.81425,-0.0693359300494194,0.21630859375,0.9653319716453552,0.9916968762714892,-0.4940032958984375,-0.4940032958984375,-0.4062652587890625,0.8081645706265416
1781025872.822256,-0.0576171875,0.2236328125,0.9599608778953552,0.9873480957654658,-0.3108978271484375,-0.4367828369140625,-0.0400543212890625,0.5376253846334301
1781025872.830262,-0.0708007737994194,0.2197265625,0.9565429091453552,0.9840055126242546,-0.25177001953125,-0.55694580078125,0.2040863037109375,0.6443818643514316
1781025872.838268,-0.0605468675494194,0.2294921875,0.9565429091453552,0.9855490471457224,-0.43487548828125,-0.00762939453125,0.2040863037109375,0.48044366717770576
1781025872.846274,-0.0561523400247097,0.2270507663488388,0.9565429091453552,0.9847230437164071,-0.12969970703125,-0.19073486328125,0.2040863037109375,0.30798217714228565
1781025872.856942,-0.0571289025247097,0.2314452975988388,0.9584960341453552,0.9876969599814848,-0.12969970703125,-0.19073486328125,0.2651214599609375,0.35141313379941874
1781025872.86761,-0.0600585862994194,0.2353515625,0.9550780653953552,0.9854803411325923,-0.2498626708984375,0.0514984130859375,0.0820159912109375,0.26797399812889183
1781025872.878278,-0.0654296875,0.21044921875,0.9545897841453552,0.9796997364874143,-0.492095947265625,-0.00762939453125,0.0820159912109375,0.4989421327072698
1781025872.888958,-0.06982421875,0.2216796725988388,0.9663085341453552,0.9938659275424031,0.23651123046875,0.11444091796875,0.2651214599609375,0.37326086638595174
1781025872.899638,-0.0673828050494194,0.2041015625,0.9658202528953552,0.9894476495166974,0.90789794921875,0.17547607421875,0.6923675537109375,1.155181097599205
1781025872.910318,-0.0541992112994194,0.2158203125,0.9619140028953552,0.9873168239016502,0.6656646728515625,-0.3108978271484375,0.6923675537109375,1.0095245143332903
1781025872.918308,-0.0410156212747097,0.2285156100988388,0.9643554091453552,0.9919087762467376,0.84686279296875,-0.31280517578125,0.6313323974609375,1.1016370837050402
1781025872.926298,-0.0556640587747097,0.2319335788488388,0.9648436903953552,0.9938888365066956,0.72479248046875,0.23651123046875,0.2651214599609375,0.8071871470815827
1781025872.934288,-0.0571289025247097,0.2329101413488388,0.9541015028953552,0.9837786962899682,0.6656646728515625,1.2111663818359375,-0.1659393310546875,1.3919659919563447
1781025872.942278,-0.0610351525247097,0.2407226413488388,0.9477538466453552,0.9797499853190832,-0.0667572021484375,1.3942718505859375,-0.5893707275390625,1.5151925197330358
1781025872.952925,-0.0703125,0.2382812350988388,0.9521483778953552,0.9840265891657777,-0.4940032958984375,1.3332366943359375,-0.7724761962890625,1.6181096419326952
1781025872.963572,-0.06494140625,0.2431640475988388,0.9423827528953552,0.9754134473365671,-1.04522705078125,0.29754638671875,-1.0166168212890625,1.4881341341633594
1781025872.974219,-0.0732421800494194,0.22265625,0.9697265028953552,0.9976521001933035,-1.89971923828125,-0.06866455078125,-0.5893707275390625,1.990227589827306
1781025872.98223,-0.0732421800494194,0.21875,0.9643554091453552,0.9915630764536854,-1.59454345703125,-0.74005126953125,-0.2841949462890625,1.7807334122187486
1781025872.990242,-0.0727538987994194,0.20263671875,0.9672850966453552,0.9909567234589495,-1.4095306396484375,-0.9250640869140625,-0.1659393310546875,1.694123977339545
1781025872.998254,-0.0517578087747097,0.2089843600988388,0.9555663466453552,0.979520482877327,-1.2264251708984375,-1.1081695556640625,-0.0400543212890625,1.6534094509733137
1781025873.006266,-0.0737304612994194,0.21337890625,0.9643554091453552,0.9904282375335312,-1.10626220703125,-0.86212158203125,0.2040863037109375,1.4172935166267115
1781025873.017004,-0.0727538987994194,0.2177734375,0.9628905653953552,0.9898871858946702,-0.92315673828125,-0.67901611328125,0.4482269287109375,1.2305237198653634
1781025873.027742,-0.0615234337747097,0.2158203125,0.9638671278953552,0.9896481093945816,-0.55694580078125,-0.55694580078125,0.6313323974609375,1.0094344189195803
1781025873.03848,-0.0585937425494194,0.2158203125,0.9584960341453552,0.9842389351300421,-0.492095947265625,-0.86212158203125,0.4482269287109375,1.0891829153732435
1781025873.049088,-0.0585937425494194,0.21923828125,0.9697265028953552,0.9959257708529572,-0.3108978271484375,-1.1081695556640625,0.7534027099609375,1.375613632675538
1781025873.059697,-0.0527343712747097,0.2167968600988388,0.9697265028953552,0.995063456710229,-0.12969970703125,-0.86212158203125,0.5702972412109375,1.0417843248680907
1781025873.070306,-0.0507812462747097,0.2192382663488388,0.9628905653953552,0.9888389117203287,-0.12969970703125,-0.55694580078125,0.5054473876953125,0.7632088185679431
1781025873.078297,-0.0424804650247097,0.2280273288488388,0.9628905653953552,0.9904338915536155,0.35858154296875,-0.25177001953125,0.1430511474609375,0.4609039992042881
1781025873.08629,-0.0595703050494194,0.22412109375,0.9545897841453552,0.9823545907166378,0.41961669921875,-0.19073486328125,0.0820159912109375,0.46817153389379473
1781025873.094283,-0.0585937462747097,0.2260742038488388,0.9531249403953552,0.9813205005257155,0.05340576171875,0.05340576171875,-0.1010894775390625,0.12618808675402138
1781025873.110291,-0.0590820275247097,0.2167968600988388,0.9653319716453552,0.9911394351986278,0.1773834228515625,-0.0705718994140625,-0.4062652587890625,0.44888387383418965
1781025873.118308,-0.0595703050494194,0.2197265625,0.9599608778953552,0.9865866766794331,0.84686279296875,-0.37384033203125,-0.2231597900390625,0.9522255383355067
1781025873.126325,-0.0585937425494194,0.22900390625,0.9555663466453552,0.984369371011135,0.7266998291015625,-0.1316070556640625,0.1430511474609375,0.7522477580602648
1781025873.134342,-0.0488281175494194,0.224609375,0.9648436903953552,0.9918452012774164,0.84686279296875,-0.00762939453125,0.1430511474609375,0.8588937236734451
1781025873.14498,-0.06640625,0.25146484375,0.9804686903953552,1.0143782383937745,0.72479248046875,-0.37384033203125,0.1430511474609375,0.8279760651052478
1781025873.155618,-0.0683593675494194,0.2275390625,0.9506835341453552,0.9799215326699573,0.4825592041015625,0.2346038818359375,0.1430511474609375,0.5553071200925798
1781025873.166256,-0.05224609375,0.22998046875,0.9565429091453552,0.9851878030887627,0.2994537353515625,0.4177093505859375,0.1430511474609375,0.53349533453707
1781025873.176958,-0.0688476487994194,0.22509765625,0.9565429091453552,0.9850803472969657,-0.3108978271484375,0.4177093505859375,-0.1659393310546875,0.5465111362849091
1781025873.187661,-0.0615234337747097,0.2333984225988388,0.9638671278953552,0.9936296074555641,-0.6771087646484375,0.6656646728515625,0.3223419189453125,1.0027412670054312
1781025873.198364,-0.0737304612994194,0.22021484375,0.9604491591453552,0.9881261790046258,-0.7381439208984375,-0.1316070556640625,0.6313323974609375,0.9801823611673787
1781025873.209027,-0.0644531175494194,0.20947265625,0.9536132216453552,0.9784739008144792,-0.8602142333984375,-0.2536773681640625,0.3871917724609375,0.9768511673337701
1781025873.21969,-0.0576171875,0.21826171875,0.9741210341453552,0.9999348515436046,-0.8602142333984375,0.1125335693359375,0.6313323974609375,1.0729459108699388
1781025873.230353,-0.056640625,0.20947265625,0.9707030653953552,0.9946614475713637,-1.0433197021484375,0.0514984130859375,0.3871917724609375,1.1140401950122432
1781025873.238323,-0.0512695275247097,0.2158203125,0.9614257216453552,0.9866845443106407,-0.61798095703125,0.23651123046875,0.2651214599609375,0.712830564666612
1781025873.246294,-0.0537109300494194,0.22021484375,0.9545897841453552,0.9811325585308472,-0.797271728515625,0.29754638671875,-0.0400543212890625,0.851927467566109
1781025873.254265,-0.052734375,0.20458984375,0.9663085341453552,0.9891360379818517,-0.37384033203125,0.29754638671875,-0.1010894775390625,0.488374373377371
1781025873.262236,-0.0585937425494194,0.22265625,0.9604491591453552,0.9876596679185751,-0.2498626708984375,-0.1316070556640625,-0.5893707275390625,0.6535362468057823
1781025873.272909,-0.0605468712747097,0.2363281100988388,0.9643554091453552,0.9947352684970764,0.05340576171875,-0.06866455078125,-0.3452301025390625,0.3560208134616323
1781025873.283582,-0.0605468712747097,0.2187499850988388,0.9609374403953552,0.9873794832562987,0.2994537353515625,-0.2536773681640625,-0.4711151123046875,0.6131673472849866
1781025873.294255,-0.05712890625,0.22412109375,0.9531249403953552,0.9807859749184157,0.1163482666015625,-0.3108978271484375,-0.7724761962890625,0.8407816909876346
1781025873.304923,-0.0698242112994194,0.22998046875,0.9770507216453552,1.0061781895657276,0.05340576171875,-0.25177001953125,-0.7114410400390625,0.7565637260478385
1781025873.315593,-0.0498046837747097,0.21630859375,0.9594725966453552,0.9848134736940706,0.1773834228515625,-0.3108978271484375,-0.8945465087890625,0.9635018391341328
1781025873.326263,-0.0644531175494194,0.21435546875,0.9677733778953552,0.993321590577723,0.1163482666015625,-0.4940032958984375,-0.4062652587890625,0.650098174123456
1781025873.334266,-0.0634765550494194,0.22265625,0.9541015028953552,0.9817916054500466,0.1773834228515625,-0.7419586181640625,-0.4711151123046875,0.8966141415415662
1781025873.342269,-0.06982421875,0.2172851413488388,0.9526366591453552,0.9795942315686922,0.4215240478515625,-0.7991790771484375,-0.4062652587890625,0.9906670382968934
1781025873.350272,-0.05712890625,0.2099609375,0.9589843153953552,0.9833606786828006,-0.12969970703125,-0.61798095703125,-0.4062652587890625,0.750848811516803
1781025873.358275,-0.0561523400247097,0.2119140475988388,0.9687499403953552,0.9932457379097973,0.11444091796875,-0.86212158203125,-0.3452301025390625,0.935699828795927
1781025873.368921,-0.06494140625,0.2226562350988388,0.9560546278953552,0.9837853611404487,0.1773834228515625,-0.7419586181640625,-0.5283355712890625,0.9279579439068354
1781025873.379567,-0.06689453125,0.2226562350988388,0.9614257216453552,0.9891360349218092,-0.0057220458984375,-0.7419586181640625,-0.5283355712890625,0.9108643196253375
1781025873.390213,-0.0502929650247097,0.2270507663488388,0.9599608778953552,0.987727857215839,-0.25177001953125,-0.80108642578125,-0.2841949462890625,0.8865068368613901
1781025873.398225,-0.0488281175494194,0.22509765625,0.9677733778953552,0.9948057352446502,-0.0057220458984375,-0.9250640869140625,-0.2231597900390625,0.9516178847613629
1781025873.406239,-0.0615234337747097,0.2211913913488388,0.9575194716453552,0.9846594858580637,-0.3719329833984375,-0.7991790771484375,-0.5283355712890625,1.027696364390198
1781025873.414253,-0.0483398362994194,0.2236328125,0.9648436903953552,0.9916005856673558,-0.43487548828125,-0.92315673828125,-0.6542205810546875,1.2121631995805948
1781025873.422267,-0.0590820237994194,0.22412109375,0.9624022841453552,0.9899187374366284,-0.0667572021484375,-0.7991790771484375,-0.2841949462890625,0.8508292947981744
1781025873.432903,-0.0585937425494194,0.2177734375,0.9682616591453552,0.9941776185961089,-0.43487548828125,-0.86212158203125,-0.4711151123046875,1.0743927408325966
1781025873.443539,-0.0498046800494194,0.2236328125,0.9677733778953552,0.9945237312123181,-0.25177001953125,-0.55694580078125,-0.2841949462890625,0.6740500984636654
1781025873.454175,-0.0673828050494194,0.22509765625,0.9624022841453552,0.990670254824363,-0.3719329833984375,-0.2536773681640625,-0.2231597900390625,0.5024804903163765
1781025873.464871,-0.056640625,0.22021484375,0.9633788466453552,0.9898492511347182,-0.1888275146484375,-0.1316070556640625,-0.1659393310546875,0.28374655765268186
1781025873.475569,-0.05615234375,0.2197265625,0.9750975966453552,1.0011234544052159,0.179290771484375,-0.00762939453125,-0.0400543212890625,0.18386880391818317
1781025873.486267,-0.0693359300494194,0.2255859375,0.9750975966453552,1.0032506214187558,0.6046295166015625,0.0514984130859375,-0.0400543212890625,0.6081392008003895
1781025873.496929,-0.0600585900247097,0.2133788913488388,0.9663085341453552,0.9914079728704832,0.60272216796875,0.29754638671875,-0.1659393310546875,0.6923465357761323
1781025873.507591,-0.0493164025247097,0.2128906100988388,0.9545897841453552,0.9792835010459999,0.7877349853515625,0.6008148193359375,-0.1659393310546875,1.004510187042112
1781025873.518253,-0.0639648362994194,0.21435546875,0.9658202528953552,0.9913871736958733,0.84686279296875,0.84686279296875,0.2040863037109375,1.2149092145473492
1781025873.526253,-0.0581054612994194,0.2060546875,0.9833983778953552,1.0064328832668161,1.3980865478515625,-0.4367828369140625,0.5054473876953125,1.5494845283623233
1781025873.534251,-0.0517578087747097,0.2363281100988388,0.9692382216453552,0.9989757638152684,1.27410888671875,-0.67901611328125,0.7534027099609375,1.6285060579217236
1781025873.542249,-0.0493163987994194,0.228515625,0.9604491591453552,0.9884908119768762,1.0929107666015625,-0.2536773681640625,0.2651214599609375,1.152864059377375
1781025873.550247,-0.0541992112994194,0.244140625,0.9594725966453552,0.9915290530258053,0.84686279296875,0.48065185546875,-0.1010894775390625,0.9789902342462383
1781025873.558268,-0.0502929650247097,0.2412109225988388,0.9467772841453552,0.9783145288124951,0.2994537353515625,1.3332366943359375,-1.0166168212890625,1.70314485117024
1781025873.566289,-0.0400390587747097,0.2382812350988388,0.9501952528953552,0.9804346443555841,-0.43487548828125,1.70135498046875,-1.3256072998046875,2.200218210353044
1781025873.57431,-0.0659179612994194,0.24462890625,0.9492186903953552,0.9824482691678053,-0.4940032958984375,1.0280609130859375,-1.1997222900390625,1.655379736069698
1781025873.582331,-0.080078125,0.2329101413488388,0.9580077528953552,0.9891604999464241,-0.9212493896484375,0.5397796630859375,-0.7724761962890625,1.317870250230274
1781025873.592973,-0.0712890625,0.234375,0.9462890028953552,0.9774848582243177,-1.4705657958984375,0.0514984130859375,-0.2841949462890625,1.4986602730816008
1781025873.603615,-0.0595703050494194,0.22021484375,0.9609374403953552,0.9876456667272401,-1.3484954833984375,-0.7991790771484375,-0.0400543212890625,1.5680343155529923
1781025873.614257,-0.06689453125,0.20556640625,0.9589843153953552,0.9830479860434054,-1.1653900146484375,-0.9822845458984375,0.1430511474609375,1.5308430507870738
1781025873.624927,-0.0590820237994194,0.21435546875,0.9677733778953552,0.9929875444748808,-1.22833251953125,-0.80108642578125,0.5702972412109375,1.5734608935215941
1781025873.635597,-0.0610351525247097,0.2109375,0.9628905653953552,0.9876123529388195,-1.1653900146484375,-0.3757476806640625,0.6923675537109375,1.4066602415645277
1781025873.646267,-0.0605468712747097,0.2070312350988388,0.9624022841453552,0.9862788715449115,-0.7381439208984375,-0.2536773681640625,0.5702972412109375,0.9666682980271828
1781025873.656936,-0.0673828050494194,0.2099609375,0.9521483778953552,0.9773487459555893,-0.7381439208984375,-0.1316070556640625,0.7534027099609375,1.062916980970935
1781025873.667607,-0.0634765550494194,0.2158203125,0.9633788466453552,0.9892959529343454,-0.4940032958984375,-0.6198883056640625,0.8754730224609375,1.1809969436516212
1781025873.678278,-0.0615234337747097,0.2080077975988388,0.9628905653953552,0.9870210826992184,-0.06866455078125,-0.55694580078125,0.8754730224609375,1.0398829061960524
1781025873.686295,-0.0434570237994194,0.19970703125,0.9628905653953552,0.984342243417186,-0.0057220458984375,-0.4940032958984375,0.8106231689453125,0.9493060203110079
1781025873.694311,-0.052734375,0.21435546875,0.9687499403953552,0.9935822202040842,0.1773834228515625,-0.3108978271484375,0.4482269287109375,0.5736111202285009
1781025873.702327,-0.0498046837747097,0.2211913913488388,0.9589843153953552,0.9854222725852263,0.4215240478515625,-0.7991790771484375,0.6313323974609375,1.1022478470619799
1781025873.710343,-0.0512695275247097,0.2255859375,0.9531249403953552,0.9807980075703714,0.7877349853515625,-0.4940032958984375,0.2040863037109375,0.9519542441040634
1781025873.720989,-0.0571289025247097,0.2270507663488388,0.9565429091453552,0.9847792133465918,0.2994537353515625,-0.3108978271484375,0.1430511474609375,0.4547456754401456
1781025873.731635,-0.0571289025247097,0.2216796725988388,0.9702147841453552,0.9968562163729654,0.41961669921875,-0.06866455078125,0.0820159912109375,0.4330353537663436
1781025873.742281,-0.06591796875,0.2236327975988388,0.9736327528953552,1.0011581015387114,0.84686279296875,-0.19073486328125,0.0820159912109375,0.8719420858061971
1781025873.752947,-0.0517578087747097,0.2270507663488388,0.9511718153953552,0.9792643890549937,0.9708404541015625,-0.0057220458984375,1.0585784912109375,1.436367763208231
1781025873.763612,-0.0532226487994194,0.21728515625,0.9594725966453552,0.9852071625730264,1.02996826171875,0.05340576171875,1.2989044189453125,1.6585654901415148
1781025873.774277,-0.0654296875,0.2216796725988388,0.9575194716453552,0.9850210453740956,0.7877349853515625,0.1125335693359375,1.2989044189453125,1.5232671797586832
1781025873.782272,-0.0517578087747097,0.2255859375,0.9497069716453552,0.9775025411520447,0.54168701171875,0.78582763671875,1.2989044189453125,1.6118630781959815
1781025873.790267,-0.0600585862994194,0.22412109375,0.9536132216453552,0.981435415577008,0.35858154296875,1.45721435546875,1.2416839599609375,1.9477765418975372
1781025873.798262,-0.0522460900247097,0.2119140475988388,0.9565429091453552,0.9811276953225061,0.35858154296875,1.51824951171875,0.6313323974609375,1.6829268845900132
1781025873.806257,-0.0532226487994194,0.2275390625,0.9687499403953552,0.9965355599900133,-0.12969970703125,1.76239013671875,0.7534027099609375,1.9210561291602104
1781025873.816947,-0.064453125,0.2275390475988388,0.9550780653953552,0.9839219148406985,-0.12969970703125,1.51824951171875,0.5054473876953125,1.6054222670581813
1781025873.827637,-0.0527343712747097,0.2265624850988388,0.9594725966453552,0.9872685233923347,-0.3108978271484375,0.9059906005859375,0.6923675537109375,1.181883774618873
1781025873.838327,-0.0615234337747097,0.2221679538488388,0.9624022841453552,0.9896271465299483,-0.3108978271484375,0.9059906005859375,0.8106231689453125,1.2548252265979625
1781025873.84632,-0.0546874925494194,0.228515625,0.9702147841453552,0.9982619095631675,-0.308990478515625,0.48065185546875,0.4482269287109375,0.7262290971866294
1781025873.854315,-0.052734375,0.2138671875,0.9677733778953552,0.9925247599726602,-0.4940032958984375,0.6008148193359375,0.2040863037109375,0.8041572749497373
1781025873.86231,-0.0551757775247097,0.2309570163488388,0.9682616591453552,0.9969534344176413,-0.1277923583984375,0.8449554443359375,0.2651214599609375,0.8947457618283504
1781025873.870305,-0.06201171875,0.22998046875,0.9589843153953552,0.9881231636001137,-0.0667572021484375,0.8449554443359375,0.0171661376953125,0.8477622917038734
1781025873.880968,-0.0493164025247097,0.2211913913488388,0.9648436903953552,0.9911009464532573,0.05340576171875,0.66375732421875,-0.1659393310546875,0.6862665826263668
1781025873.891631,-0.0639648362994194,0.2197265625,0.9653319716453552,0.9920872330755934,0.2994537353515625,0.6008148193359375,-0.1659393310546875,0.6915105554802153
1781025873.902294,-0.06201171875,0.240234375,0.9619140028953552,0.9933964753109079,0.41961669921875,0.29754638671875,-0.0400543212890625,0.515961602414899
1781025873.913007,-0.0673828050494194,0.2255859375,0.9570311903953552,0.9855648923351686,0.35858154296875,-0.19073486328125,0.2040863037109375,0.4545456307029688
1781025873.923719,-0.06787109375,0.2314452975988388,0.9741210341453552,1.0035363472798844,0.05340576171875,-0.19073486328125,-0.1010894775390625,0.22237591129616008
1781025873.934431,-0.0703125,0.2309570163488388,0.9658202528953552,0.9955369164224176,0.23651123046875,-0.19073486328125,0.0820159912109375,0.3147125244140625
1781025873.945072,-0.056640625,0.21923828125,0.9516600966453552,0.9782282575722762,0.23651123046875,-0.31280517578125,-0.1659393310546875,0.42581745117392505
1781025873.955714,-0.0639648362994194,0.220703125,0.9638671278953552,0.9908790087113654,0.4825592041015625,-0.6198883056640625,-0.1010894775390625,0.7920504904558271
1781025873.966356,-0.0615234337747097,0.2216796725988388,0.9545897841453552,0.9819209062555065,0.60272216796875,-0.49591064453125,-0.2231597900390625,0.8117891789193967
1781025873.974382,-0.0566406212747097,0.2280273288488388,0.9580077528953552,0.9863992484222246,0.2994537353515625,-0.6771087646484375,-0.2231597900390625,0.7732716926604873
1781025873.982409,-0.0541992112994194,0.2158203125,0.9614257216453552,0.9868411118484924,0.23651123046875,-0.86212158203125,-0.3452301025390625,0.9583188446655106
1781025873.990436,-0.0688476487994194,0.2138671875,0.9560546278953552,0.9820995999156574,-0.06866455078125,-0.86212158203125,-0.4062652587890625,0.9555207497678949
1781025873.998463,-0.0522460900247097,0.2182617038488388,0.9550780653953552,0.9810922159966425,0.2994537353515625,-0.6198883056640625,-0.1659393310546875,0.7081454036466966
1781025874.009048,-0.0624999962747097,0.2167968600988388,0.9619140028953552,0.988021091398974,-0.1888275146484375,-0.9250640869140625,-0.6542205810546875,1.1486531085850014
1781025874.019633,-0.0527343712747097,0.2280273288488388,0.9580077528953552,0.9861826561156323,-0.0057220458984375,-0.9822845458984375,-0.4711151123046875,1.089433393999845
1781025874.030218,-0.0468749962747097,0.2133788913488388,0.9677733778953552,0.9921255603561475,0.05340576171875,-0.98419189453125,-0.5283355712890625,1.118313165680844
1781025874.038497,-0.0483398362994194,0.21240234375,0.9682616591453552,0.9924626622573082,0.1163482666015625,-0.6198883056640625,-0.5893707275390625,0.8632243538734147
1781025874.046774,-0.0624999962747097,0.2182617038488388,0.9682616591453552,0.9945225293940068,0.35858154296875,-0.43487548828125,-0.7114410400390625,0.9076594993264644
1781025874.055051,-0.0507812462747097,0.2119140475988388,0.9594725966453552,0.9839074967985132,0.23651123046875,-0.25177001953125,-0.4062652587890625,0.5332702554723563
1781025874.063328,-0.0605468675494194,0.22998046875,0.9501952528953552,0.9795039345512526,0.1163482666015625,-0.2536773681640625,-0.1010894775390625,0.296830269226294
1781025874.073643,-0.0634765550494194,0.21630859375,0.9721679091453552,0.9979624864407961,-0.308990478515625,-0.37384033203125,-0.1010894775390625,0.49542990637997497
1781025874.083958,-0.06201171875,0.22509765625,0.9658202528953552,0.9936413684093574,0.05340576171875,-0.31280517578125,0.0820159912109375,0.32775886897933243
1781025874.094273,-0.0541992112994194,0.2158203125,0.9658202528953552,0.9911229604322184,0.2994537353515625,-0.0057220458984375,0.1430511474609375,0.33191702610013596
1781025874.10531,-0.0527343712747097,0.2275390475988388,0.9594725966453552,0.9874930864615236,0.179290771484375,0.11444091796875,-0.2841949462890625,0.3549770019891932
1781025874.11635,-0.0581054612994194,0.220703125,0.9560546278953552,0.9829173747257244,0.35858154296875,0.72479248046875,-0.4062652587890625,0.9049620562216057
1781025874.12739,-0.06494140625,0.2177734225988388,0.9633788466453552,0.9898188985869459,-0.0057220458984375,0.3566741943359375,-0.2841949462890625,0.4560877001309036
1781025874.135136,-0.0615234337747097,0.2177734225988388,0.9765624403953552,1.0024393230938096,0.84686279296875,0.17547607421875,0.1430511474609375,0.8766025744474785
1781025874.142883,-0.0605468712747097,0.2236327975988388,0.9584960341453552,0.9860994875038793,0.7877349853515625,-0.0057220458984375,0.2651214599609375,0.8311729889065869
1781025874.15063,-0.0634765625,0.2314452975988388,0.9438475966453552,0.9738811454487887,0.6656646728515625,0.3566741943359375,-0.0400543212890625,0.756260726364721
1781025874.158377,-0.0541992112994194,0.23974609375,0.9638671278953552,0.9947138202574165,0.54168701171875,0.78582763671875,-0.2841949462890625,0.9958497179755629
1781025874.168988,-0.0463867150247097,0.2377929538488388,0.9702147841453552,1.000006971778276,0.6046295166015625,1.3332366943359375,-0.5893707275390625,1.5781174829364197
1781025874.179599,-0.0566406212747097,0.2309570163488388,0.9609374403953552,0.9899242737364913,0.6656646728515625,1.5163421630859375,-0.7724761962890625,1.8273265953484987
1781025874.19021,-0.06787109375,0.2309570163488388,0.9506835341453552,0.9806869076635427,0.4215240478515625,1.0280609130859375,-0.7114410400390625,1.319371106771753
1781025874.200896,-0.0639648362994194,0.22314453125,0.9541015028953552,0.9819341423622916,-0.0667572021484375,1.2111663818359375,-0.8945465087890625,1.5071808069753754
1781025874.211582,-0.06396484375,0.2260742038488388,0.9565429091453552,0.984974813849627,-0.308990478515625,0.60272216796875,-0.4711151123046875,0.8250445906835117
1781025874.222268,-0.0732421800494194,0.2275390625,0.9575194716453552,0.986905254055206,-0.4940032958984375,0.1773834228515625,-0.4711151123046875,0.7053038948587437
1781025874.230278,-0.0732421800494194,0.21435546875,0.9672850966453552,0.9934551535492873,-0.61798095703125,-0.31280517578125,0.0171661376953125,0.6928507902370992
1781025874.23829,-0.06884765625,0.2167968600988388,0.9589843153953552,0.9855921040136897,-0.6771087646484375,-0.4367828369140625,-0.1010894775390625,0.8120804198203219
1781025874.246302,-0.07080078125,0.2133788913488388,0.9653319716453552,0.9911655348021231,-0.5550384521484375,-0.2536773681640625,0.2651214599609375,0.6653640199272859
1781025874.254314,-0.0678710862994194,0.21533203125,0.9580077528953552,0.9842526213555757,-0.6771087646484375,-0.2536773681640625,0.1430511474609375,0.7370835210966729
1781025874.264944,-0.0595703050494194,0.2109375,0.9697265028953552,0.9941894892662999,-0.74005126953125,-0.19073486328125,0.1430511474609375,0.7775083924920829
1781025874.275574,-0.0737304612994194,0.22998046875,0.9589843153953552,0.9889277598005797,-0.43487548828125,-0.55694580078125,0.3871917724609375,0.805743621741535
1781025874.286204,-0.0620117150247097,0.2285156100988388,0.9672850966453552,0.9958440114050817,-0.12969970703125,-0.86212158203125,0.2651214599609375,0.911243669245431
1781025874.296919,-0.0561523400247097,0.2192382663488388,0.9604491591453552,0.9867528008700633,-0.12969970703125,-0.74005126953125,0.3871917724609375,0.8452309531721193
1781025874.307634,-0.0522460900247097,0.2211913913488388,0.9614257216453552,0.9879244423390876,-0.0057220458984375,-0.6198883056640625,0.3223419189453125,0.6987120766221752
1781025874.318349,-0.0405273400247097,0.2119140475988388,0.9746093153953552,0.9982050623567306,-0.0667572021484375,-0.7419586181640625,0.5702972412109375,0.938188711528453
1781025874.32896,-0.064453125,0.2221679538488388,0.9653319716453552,0.9926623899999205,0.484466552734375,-0.19073486328125,0.3223419189453125,0.612365855921599
1781025874.339572,-0.0546874962747097,0.2216796725988388,0.9667968153953552,0.9933925114228138,0.6656646728515625,-0.3108978271484375,-0.0400543212890625,0.7357793584099277
1781025874.350184,-0.0556640587747097,0.2285156100988388,0.9663085341453552,0.9945200121969713,0.6046295166015625,-0.0705718994140625,0.3223419189453125,0.6888116999892598
1781025874.358202,-0.0615234337747097,0.2290038913488388,0.9638671278953552,0.9926065461166287,0.84686279296875,-0.00762939453125,0.2040863037109375,0.8711406414225767
1781025874.366219,-0.0488281212747097,0.2270507663488388,0.9594725966453552,0.9871797706801904,0.972747802734375,0.29754638671875,0.4482269287109375,1.1116112268214902
1781025874.374236,-0.0625,0.224609375,0.9536132216453552,0.9816994437376054,0.7877349853515625,0.4177093505859375,0.8106231689453125,1.205038352395762
1781025874.382253,-0.0585937425494194,0.22509765625,0.9682616591453552,0.9958076230307271,0.7877349853515625,0.0514984130859375,0.6923675537109375,1.0500244393007547
1781025874.390254,-0.0585937462747097,0.2309570163488388,0.9633788466453552,0.992407765319779,0.6046295166015625,0.0514984130859375,0.2651214599609375,0.6622071635281727
1781025874.398255,-0.0512695275247097,0.2290038913488388,0.9628905653953552,0.9910749656978046,0.4825592041015625,0.9059906005859375,0.4482269287109375,1.1200846992236082
1781025874.406256,-0.0556640587747097,0.2270507663488388,0.9726561903953552,1.0003552382295375,0.2994537353515625,1.2722015380859375,0.2651214599609375,1.3335886478431225
1781025874.414257,-0.0654296875,0.2167968600988388,0.9692382216453552,0.995341475501405,0.1773834228515625,0.7228851318359375,0.0820159912109375,0.7488353726596451
1781025874.42491,-0.06298828125,0.2260742038488388,0.9570311903953552,0.9853861012873412,0.0553131103515625,0.8449554443359375,0.0171661376953125,0.846937966661715
1781025874.435563,-0.0590820237994194,0.23486328125,0.9628905653953552,0.9928794928606082,-0.2498626708984375,0.7228851318359375,0.0820159912109375,0.7692339637277297
1781025874.446216,-0.0712890625,0.21630859375,0.9653319716453552,0.9918353460342803,-0.308990478515625,0.60272216796875,0.1430511474609375,0.6922519471725276
1781025874.456934,-0.07080078125,0.22021484375,0.9721679091453552,0.9993086468181385,-0.1888275146484375,0.2346038818359375,0.2040863037109375,0.3637939403332461
1781025874.467652,-0.06591796875,0.2309570163488388,0.9726561903953552,1.0018714422116688,-0.5550384521484375,0.3566741943359375,0.3871917724609375,0.764984727252751
1781025874.47837,-0.0732421800494194,0.2333984375,0.9633788466453552,0.9939507280190341,-0.3719329833984375,0.3566741943359375,0.1430511474609375,0.534803006568534
1781025874.489032,-0.0678710862994194,0.23046875,0.9658202528953552,0.9952542840826527,-0.55694580078125,0.11444091796875,0.0820159912109375,0.5744666844367134
1781025874.499692,-0.0576171837747097,0.2216796725988388,0.9609374403953552,0.9878574702168496,-0.2498626708984375,0.2346038818359375,-0.2231597900390625,0.40898731957270984
1781025874.510352,-0.0678710862994194,0.2236328125,0.9672850966453552,0.9951173686426831,-0.1888275146484375,0.1125335693359375,-0.1010894775390625,0.2419477567263494
1781025874.518784,-0.0605468675494194,0.22021484375,0.9550780653953552,0.9820054030285262,-0.1888275146484375,-0.0057220458984375,-0.2231597900390625,0.29238478754519387
1781025874.527218,-0.06884765625,0.2309570163488388,0.9580077528953552,0.9878562637243761,-0.0057220458984375,-0.0705718994140625,-0.2231597900390625,0.23412267443895912
1781025874.535652,-0.0605468712747097,0.2226562350988388,0.9624022841453552,0.9896766538510154,-0.2765655517578125,-0.3871917724609375,-0.2155303955078125,0.5223593824832667
1781025874.544086,-0.06396484375,0.2211913913488388,0.9692382216453552,0.9962127599770281,-0.0934600830078125,-0.3871917724609375,-0.3986358642578125,0.5635271138550857
1781025874.554267,-0.0678710862994194,0.22265625,0.9638671278953552,0.9915755796996852,-0.1544952392578125,-0.7534027099609375,-0.3414154052734375,0.8414564167488645
1781025874.564448,-0.0561523400247097,0.2172851413488388,0.9672850966453552,0.9929785375996047,-0.095367431640625,-0.45013427734375,-0.5245208740234375,0.6977377458213223
1781025874.574629,-0.0458984337747097,0.2290038913488388,0.9692382216453552,0.9969815338180206,0.2727508544921875,-0.8144378662109375,-0.3414154052734375,0.9242654085826587
1781025874.58517,-0.0561523400247097,0.21533203125,0.9599608778953552,0.9854165901090375,0.3337860107421875,-0.5092620849609375,-0.4596710205078125,0.7629275321029112
1781025874.595712,-0.06884765625,0.2167968600988388,0.9648436903953552,0.9912942172814092,0.152587890625,-0.63323974609375,-0.3986358642578125,0.7636662835760376
1781025874.606254,-0.0537109300494194,0.21875,0.9663085341453552,0.9922139938888781,-0.0324249267578125,-0.7534027099609375,-0.2765655517578125,0.8032157391827163
1781025874.614276,-0.0634765550494194,0.2236328125,0.9628905653953552,0.9905549701026132,-0.0934600830078125,-0.3261566162109375,0.0896453857421875,0.35092623241767146
1781025874.622299,-0.0581054612994194,0.22900390625,0.9614257216453552,0.990029520747674,-0.2765655517578125,-0.3261566162109375,-0.2765655517578125,0.5092692285386732
1781025874.630322,-0.0498046800494194,0.21875,0.9667968153953552,0.9924858441879287,-0.3986358642578125,-0.3871917724609375,-0.3414154052734375,0.6522212047243183
1781025874.638345,-0.0522460900247097,0.2319335788488388,0.9653319716453552,0.9941773757238743,-0.644683837890625,-0.26702880859375,-0.2155303955078125,0.7303252609927561
1781025874.649021,-0.0605468675494194,0.224609375,0.9604491591453552,0.9882195514211188,-0.3986358642578125,-0.0209808349609375,-0.5817413330078125,0.7055308116857391
1781025874.659697,-0.0634765625,0.2260742038488388,0.9580077528953552,0.9863658926789342,-0.3986358642578125,-0.0209808349609375,-0.5817413330078125,0.7055308116857391
1781025874.670373,-0.0620117150247097,0.2187499850988388,0.9565429091453552,0.9831944598182535,-0.2155303955078125,0.2841949462890625,-0.2155303955078125,0.4167414909410284
1781025874.678346,-0.07080078125,0.2226562350988388,0.9545897841453552,0.9827666079230997,-0.2765655517578125,0.2841949462890625,-0.2765655517578125,0.4834705537408143
1781025874.686318,-0.0566406212747097,0.2128906100988388,0.9682616591453552,0.9930061492345136,-0.644683837890625,0.52642822265625,0.0896453857421875,0.8371261670926728
1781025874.69429,-0.0546874962747097,0.2133788913488388,0.9653319716453552,0.9901449838295222,-0.461578369140625,0.52642822265625,-0.0934600830078125,0.706339898054304
1781025874.702262,-0.0629882737994194,0.21728515625,0.9492186903953552,0.9758055564295024,-0.5207061767578125,0.5283355712890625,0.0286102294921875,0.7423556719219393
1781025874.712952,-0.0507812462747097,0.2255859375,0.9653319716453552,0.9926396957867822,-0.3986358642578125,0.1621246337890625,0.0896453857421875,0.43958075974577904
1781025874.723642,-0.0571289025247097,0.2280273288488388,0.9633788466453552,0.9916445816769984,-0.461578369140625,0.58746337890625,-0.2155303955078125,0.777573896039612
1781025874.734332,-0.0581054612994194,0.2255859375,0.9599608778953552,0.987820908323059,-0.3986358642578125,0.6504058837890625,-0.1583099365234375,0.7791023051833817
1781025874.742295,-0.05224609375,0.21923828125,0.9599608778953552,0.9860628607584858,-0.2155303955078125,0.7114410400390625,-0.0362396240234375,0.7442546709218405
1781025874.750258,-0.0502929650247097,0.2255859375,0.9643554091453552,0.9916651414044139,0.1506805419921875,0.4062652587890625,0.0896453857421875,0.4424843290093661
1781025874.758221,-0.056640625,0.21533203125,0.9506835341453552,0.9764093537946799,-0.152587890625,0.52642822265625,-0.1583099365234375,0.5705013356482701
1781025874.766184,-0.06689453125,0.2197265625,0.9628905653953552,0.989905491199342,-0.3986358642578125,0.7724761962890625,-0.2765655517578125,0.9122053116074772
1781025874.776868,-0.0620117150247097,0.2187499850988388,0.9521483778953552,0.9789195790818591,-0.0934600830078125,0.5893707275390625,-0.2765655517578125,0.6577090131774495
1781025874.787552,-0.05712890625,0.22509765625,0.9750975966453552,1.002371183625164,0.152587890625,0.34332275390625,0.2727508544921875,0.4642699713974369
1781025874.798236,-0.0581054612994194,0.22314453125,0.9702147841453552,0.9972394165062965,0.3337860107421875,0.1010894775390625,0.5168914794921875,0.6235454955397616
1781025874.806238,-0.0615234337747097,0.220703125,0.9584960341453552,0.9854996954644738,0.6999969482421875,0.1010894775390625,0.3948211669921875,0.809999113531965
1781025874.81424,-0.0561523400247097,0.2275390475988388,0.9702147841453552,0.9981201485025014,0.392913818359375,0.70953369140625,-0.0934600830078125,0.8164276544888412
1781025874.822242,-0.0556640587747097,0.2368163913488388,0.9501952528953552,0.9808422448465547,0.392913818359375,1.50299072265625,-0.5817413330078125,1.6588506140030232
1781025874.830244,-0.0590820237994194,0.23779296875,0.9677733778953552,0.9983093170386419,-0.1544952392578125,1.8100738525390625,-0.6427764892578125,1.9270178374217326
1781025874.841072,-0.0585937425494194,0.220703125,0.9570311903953552,0.9838962320490224,-0.461578369140625,0.89263916015625,-0.8296966552734375,1.3031714395561713
1781025874.8519,-0.06982421875,0.2226562350988388,0.9565429091453552,0.9845941080408193,-0.7038116455078125,0.5283355712890625,-0.7038116455078125,1.1268718385842151
1781025874.862728,-0.0581054612994194,0.2373046875,0.9663085341453552,0.9967155775367595,-1.194000244140625,-0.14495849609375,-0.2765655517578125,1.2341547929723957
1781025874.873217,-0.06494140625,0.2216796725988388,0.9541015028953552,0.9816664104044873,-1.621246337890625,-0.63323974609375,-0.2765655517578125,1.7623622693917793
1781025874.883706,-0.0561523400247097,0.2094726413488388,0.9628905653953552,0.9870106958342937,-1.7414093017578125,-1.0585784912109375,0.1468658447265625,2.0431995386281545
1781025874.894195,-0.0566406212747097,0.21630859375,0.9594725966453552,0.9851828416197006,-2.3517608642578125,-0.8754730224609375,-0.1583099365234375,2.5144172708032366
1781025874.904868,-0.0566406212747097,0.2226562350988388,0.9628905653953552,0.9899202997889079,-1.8024444580078125,-0.5702972412109375,0.2727508544921875,1.9100884786213705
1781025874.91554,-0.0693359375,0.2119140475988388,0.9633788466453552,0.9888446986066425,-1.495361328125,-0.14495849609375,0.3299713134765625,1.5381805924399687
1781025874.926212,-0.0585937425494194,0.21142578125,0.9521483778953552,0.9770980611851999,-1.0700225830078125,-0.0209808349609375,0.5779266357421875,1.216300834449542
1781025874.934319,-0.0615234337747097,0.2241210788488388,0.9799804091453552,1.0071628434352096,-0.8869171142578125,-0.3261566162109375,0.5168914794921875,1.0771150855099918
1781025874.942427,-0.0683593675494194,0.2060546875,0.9506835341453552,0.9751567666111854,-0.3376007080078125,-0.0209808349609375,0.5168914794921875,0.6177307140289018
1781025874.950535,-0.0571289025247097,0.2084960788488388,0.9589843153953552,0.98304895278583,-0.1544952392578125,-0.0820159912109375,0.5779266357421875,0.603816692438959
1781025874.966561,-0.0488281212747097,0.2270507663488388,0.9736327528953552,1.0009480373313095,-0.152587890625,-0.14495849609375,0.2727508544921875,0.3445127843511285
1781025874.974478,-0.0537109300494194,0.234375,0.9741210341453552,1.0033585071130806,-0.1544952392578125,0.1621246337890625,0.1468658447265625,0.2678110382000957
1781025874.982395,-0.06396484375,0.2358398288488388,0.9755858778953552,1.0057234864793914,0.2727508544921875,0.5893707275390625,-0.0362396240234375,0.650433850176559
1781025874.990312,-0.0590820275247097,0.2309570163488388,0.9760741591453552,1.0047649444166036,-0.1544952392578125,0.4673004150390625,0.2117156982421875,0.5357816661021407
1781025875.000969,-0.0654296875,0.2382812350988388,0.9731444716453552,1.0040264706174302,-0.1544952392578125,0.5893707275390625,0.0286102294921875,0.609955062824179
1781025875.011626,-0.0693359375,0.2509765625,0.9843749403953552,1.0182292131105253,0.2727508544921875,0.5893707275390625,0.0286102294921875,0.6500534042197902
1781025875.022283,-0.06201171875,0.23486328125,0.9716796278953552,1.001582504544035,0.4558563232421875,0.5283355712890625,0.2727508544921875,0.7492239264435194
1781025875.030285,-0.0649413987994194,0.2587890625,0.9790038466453552,1.0147106463884452,0.392913818359375,0.52642822265625,0.1468658447265625,0.6731103316797395
1781025875.038287,-0.0742187425494194,0.24462890625,0.9804686903953552,1.0132475395303318,0.2727508544921875,0.5283355712890625,0.3948211669921875,0.7137333244431223
1781025875.046289,-0.0654296875,0.2490234225988388,0.9785155653953552,1.011823314976572,0.335693359375,0.34332275390625,0.2727508544921875,0.5522260166856165
1781025875.054291,-0.0624999962747097,0.25244140625,0.9824218153953552,1.0162605652530858,0.514984130859375,1.01470947265625,0.3299713134765625,1.1847890262206004
1781025875.064934,-0.0541992150247097,0.2407226413488388,0.9707030653953552,1.001573455186985,0.2117156982421875,0.6504058837890625,0.2117156982421875,0.7160131894258551
1781025875.075577,-0.0615234337747097,0.2407226413488388,0.9672850966453552,0.9986856267883337,-0.095367431640625,0.34332275390625,-0.1583099365234375,0.38990703554764894
1781025875.08622,-0.05712890625,0.22412109375,0.9619140028953552,0.9893293311931993,-0.3376007080078125,0.8945465087890625,-0.1583099365234375,0.9691489722618145
1781025875.096895,-0.0615234337747097,0.220703125,0.9428710341453552,0.9703096357959805,-0.278472900390625,0.34332275390625,0.3299713134765625,0.5516327920992246
1781025875.107571,-0.078125,0.2119140475988388,0.9658202528953552,0.9918769278986032,-0.5207061767578125,0.2841949462890625,0.4520416259765625,0.74581721730295
1781025875.118247,-0.0590820237994194,0.22021484375,0.9619140028953552,0.9885665439970328,-1.0089874267578125,-0.0209808349609375,0.7610321044921875,1.2639880089853772
1781025875.12626,-0.06640625,0.2192382663488388,0.9628905653953552,0.9897643398294838,-0.8258819580078125,0.2231597900390625,0.7610321044921875,1.1450114254979749
1781025875.134272,-0.0517578087747097,0.2158203125,0.9604491591453552,0.9857585228440974,-0.7648468017578125,0.1621246337890625,0.5168914794921875,0.9372576105916743
1781025875.142284,-0.06201171875,0.2197265625,0.9736327528953552,1.0000429755970408,-0.583648681640625,0.03814697265625,0.8182525634765625,1.0058022831250892
1781025875.150296,-0.0488281175494194,0.224609375,0.9663085341453552,0.9932702248449088,-0.5207061767578125,0.4062652587890625,0.8831024169921875,1.102749410296884
1781025875.161065,-0.0522460900247097,0.2309570163488388,0.9580077528953552,0.9868382096023826,-0.3376007080078125,0.4062652587890625,0.3948211669921875,0.6594766504216757
1781025875.171834,-0.07177734375,0.2255859375,0.9472655653953552,0.9763979996176465,-0.0934600830078125,0.6504058837890625,0.1468658447265625,0.6732994706150491
1781025875.182603,-0.04736328125,0.224609375,0.9643554091453552,0.9912991510621618,0.026702880859375,0.40435791015625,0.1468658447265625,0.4310312514184635
1781025875.193203,-0.0625,0.21923828125,0.9575194716453552,0.9842841117002012,-0.152587890625,0.03814697265625,-0.4596710205078125,0.4858350573835913
1781025875.203803,-0.0502929650247097,0.220703125,0.9746093153953552,1.0005511328118846,0.2727508544921875,0.0400543212890625,-0.7038116455078125,0.7558757898177191
1781025875.214403,-0.0625,0.22412109375,0.9746093153953552,1.0019979203167535,0.2117156982421875,0.1010894775390625,-0.7648468017578125,0.8000207806741348
1781025875.222985,-0.0683593675494194,0.21875,0.9741210341453552,1.000717919693743,0.3337860107421875,0.1621246337890625,-0.8296966552734375,0.9088971545892036
1781025875.231567,-0.0566406212747097,0.2226562350988388,0.9755858778953552,1.002273298135606,0.4558563232421875,0.2841949462890625,-1.0128021240234375,1.1464466395617876
1781025875.240149,-0.06591796875,0.2211913913488388,0.9677733778953552,0.9949151326489849,0.759124755859375,-0.14495849609375,-1.0700225830078125,1.319936244178115
1781025875.248731,-0.0703125,0.2158203125,0.9526366591453552,0.9793052942221192,0.5168914794921875,-0.2040863037109375,-0.7648468017578125,0.9454198279564323
1781025875.258646,-0.0693359300494194,0.2353515625,0.9599608778953552,0.9908192147191285,0.3948211669921875,0.1010894775390625,-0.7038116455078125,0.8132980196254065
1781025875.268561,-0.0605468675494194,0.21484375,0.9536132216453552,0.97938855240448,0.2727508544921875,-0.0209808349609375,-0.6427764892578125,0.6985662740245018
1781025875.278476,-0.0629882737994194,0.21240234375,0.9565429091453552,0.9818638476402841,0.2727508544921875,0.1010894775390625,-0.5817413330078125,0.6504114771627617
1781025875.289088,-0.0581054612994194,0.21337890625,0.9707030653953552,0.9955758350990666,0.026702880859375,-0.324249267578125,-0.2765655517578125,0.4270118684419014
1781025875.299701,-0.0600585862994194,0.21923828125,0.9580077528953552,0.9846071868320619,0.026702880859375,-0.45013427734375,0.0896453857421875,0.45975015679261666
1781025875.310314,-0.06201171875,0.2041015625,0.9682616591453552,0.991480479711117,0.1506805419921875,-0.2040863037109375,0.1468658447265625,0.29313038301189315
1781025875.318288,-0.06396484375,0.2172851413488388,0.9628905653953552,0.9891726718901679,0.209808349609375,-0.45013427734375,0.0896453857421875,0.5046550370207904
1781025875.32626,-0.0576171875,0.2099609375,0.9775390028953552,1.0014918061336968,0.3337860107421875,-0.0820159912109375,0.3948211669921875,0.5234725185590635
1781025875.334232,-0.0463867150247097,0.21044921875,0.9716796278953552,0.9952898574134698,0.4558563232421875,-0.2651214599609375,-0.0362396240234375,0.5285902820910207
1781025875.342204,-0.052734375,0.20947265625,0.9687499403953552,0.992540253611447,0.1506805419921875,-0.2651214599609375,-0.0934600830078125,0.31894952795498155
1781025875.352932,-0.0439453087747097,0.2260742038488388,0.9609374403953552,0.9881505452929568,0.2117156982421875,0.2841949462890625,-0.3986358642578125,0.5333862171550678
1781025875.36366,-0.0502929650247097,0.2260742038488388,0.9609374403953552,0.988453181658312,0.209808349609375,0.03814697265625,-0.3986358642578125,0.4520899107049609
1781025875.374388,-0.0600585900247097,0.2182617038488388,0.9697265028953552,0.9957985218006752,0.698089599609375,0.34332275390625,-0.6427764892578125,1.0091388495024596
1781025875.382351,-0.0590820237994194,0.2138671875,0.9516600966453552,0.9771830938838648,0.5779266357421875,0.4673004150390625,-0.3986358642578125,0.8433738355370863
1781025875.390316,-0.0571289025247097,0.2333984225988388,0.9521483778953552,0.9820005441465194,0.392913818359375,0.34332275390625,-0.5817413330078125,0.7814568193683014
1781025875.398281,-0.0644531175494194,0.220703125,0.9633788466453552,0.9904357000382911,0.4558563232421875,0.4062652587890625,-0.7038116455078125,0.9317764111047481
1781025875.406246,-0.0537109300494194,0.22412109375,0.9467772841453552,0.9744241142562742,0.514984130859375,0.652313232421875,-0.2765655517578125,0.8759050819859218
1781025875.417248,-0.0625,0.21875,0.9687499403953552,0.9951051499796413,0.4558563232421875,0.3452301025390625,-0.3986358642578125,0.697064820093218
1781025875.42825,-0.0585937425494194,0.21630859375,0.9497069716453552,0.9757899191874456,0.209808349609375,0.52642822265625,-0.5817413330078125,0.8121386554674852
1781025875.439252,-0.0468749962747097,0.2138671725988388,0.9726561903953552,0.9969937299229022,0.0286102294921875,0.2841949462890625,-0.6427764892578125,0.7033824904491421
1781025875.449599,-0.0532226487994194,0.2236328125,0.9594725966453552,0.986626549858287,0.4558563232421875,-0.3871917724609375,-0.0934600830078125,0.6053571203984929
1781025875.459946,-0.0742187425494194,0.2197265625,0.9614257216453552,0.9890033378381367,0.5779266357421875,-0.7534027099609375,-0.0362396240234375,0.9502253153995255
1781025875.470293,-0.0493163987994194,0.2099609375,0.9658202528953552,0.9896082373188241,0.6389617919921875,-0.5092620849609375,0.2117156982421875,0.8440637296358644
1781025875.478291,-0.052734375,0.2236328125,0.9702147841453552,0.9970502878528841,0.335693359375,0.03814697265625,-0.3414154052734375,0.480322497921277
1781025875.48629,-0.0737304612994194,0.21484375,0.9487304091453552,0.9755426218646732,0.0286102294921875,0.7724761962890625,-0.7038116455078125,1.0454132443283988
1781025875.494289,-0.0649413987994194,0.21533203125,0.9545897841453552,0.9807277527198627,0.0896453857421875,0.7724761962890625,-1.0128021240234375,1.2769196965527905
1781025875.502288,-0.07470703125,0.2319335788488388,0.9565429091453552,0.9870910102680899,-0.3376007080078125,0.2841949462890625,-1.2531280517578125,1.3285597162513811
1781025875.51295,-0.06689453125,0.22998046875,0.9614257216453552,0.990810432201296,-0.8258819580078125,-0.3871917724609375,-1.0128021240234375,1.362999126797463
1781025875.523612,-0.06591796875,0.2265624850988388,0.9541015028953552,0.9828455708225291,-0.766754150390625,-0.57220458984375,-1.1310577392578125,1.4814255395781784
1781025875.534274,-0.06640625,0.2221679538488388,0.9658202528953552,0.9932659012869063,-1.0089874267578125,-1.0585784912109375,-0.6427764892578125,1.597437217718548
1781025875.542255,-0.0634765550494194,0.22314453125,0.9589843153953552,0.9866476939830257,-1.2531280517578125,-1.6689300537109375,-0.5245208740234375,2.1519246235796072
1781025875.550236,-0.06640625,0.2285156100988388,0.9580077528953552,0.9871210810764377,-1.1310577392578125,-1.6689300537109375,-0.0934600830078125,2.018255167423191
1781025875.558217,-0.06201171875,0.220703125,0.9711913466453552,0.9978817336968911,-1.0700225830078125,-1.6689300537109375,0.0896453857421875,1.9845181146845623
1781025875.566198,-0.0703125,0.2255859375,0.9687499403953552,0.9971505953816646,-0.583648681640625,-1.24359130859375,0.2117156982421875,1.389959950240629
1781025875.576903,-0.0688476487994194,0.228515625,0.9716796278953552,1.000560187535565,-0.3376007080078125,-0.8754730224609375,0.2117156982421875,0.9618995727135149
1781025875.587608,-0.0585937425494194,0.21435546875,0.9716796278953552,0.9967661676219933,-0.2155303955078125,-0.6923675537109375,0.7610321044921875,1.05118792082445
1781025875.598313,-0.0468749962747097,0.2177734225988388,0.9624022841453552,0.9878464887796907,0.087738037109375,-0.63323974609375,0.7610321044921875,0.9939116677333508
1781025875.60631,-0.0483398362994194,0.21484375,0.9624022841453552,0.9872754089997958,0.1506805419921875,-0.4482269287109375,0.6999969482421875,0.8447530603111627
1781025875.614309,-0.0478515587747097,0.2275390475988388,0.9692382216453552,0.9967379395596452,0.392913818359375,-0.63323974609375,0.5168914794921875,0.906945779119261
1781025875.622308,-0.0493163987994194,0.21484375,0.9677733778953552,0.9925599503645066,0.5779266357421875,-0.5092620849609375,0.7610321044921875,1.0828282096190753
1781025875.630307,-0.0419921837747097,0.2124023288488388,0.9653319716453552,0.989314868117976,0.5779266357421875,-0.0209808349609375,0.3299713134765625,0.6658231442758573
1781025875.640976,-0.0546874925494194,0.2109375,0.9750975966453552,0.9991499755948257,0.8220672607421875,0.1621246337890625,0.2117156982421875,0.8642352196870816
1781025875.651645,-0.0556640587747097,0.220703125,0.9492186903953552,0.9761272862797726,0.392913818359375,0.34332275390625,-0.0362396240234375,0.5230345039831269
1781025875.662314,-0.0590820237994194,0.21044921875,0.9716796278953552,0.9959622776368473,0.2727508544921875,0.4062652587890625,0.2117156982421875,0.5331679153956466
1781025875.672985,-0.0551757737994194,0.21923828125,0.9677733778953552,0.9938285068072885,0.335693359375,0.52642822265625,0.0286102294921875,0.6250082002414743
1781025875.683657,-0.0693359300494194,0.208984375,0.9624022841453552,0.9872690092969371,0.6999969482421875,0.7724761962890625,0.1468658447265625,1.0527510521148107
1781025875.694329,-0.0624999962747097,0.2270507663488388,0.9550780653953552,0.9836830846534204,0.4558563232421875,0.4673004150390625,0.6999969482421875,0.957167902138356
1781025875.704959,-0.0590820237994194,0.21484375,0.9531249403953552,0.9788236176420894,0.5779266357421875,0.5893707275390625,1.0051727294921875,1.3006649325998534
1781025875.715588,-0.0590820275247097,0.2211913913488388,0.9658202528953552,0.9925850484901098,0.7610321044921875,0.7724761962890625,0.8182525634765625,1.3584647936317642
1781025875.726217,-0.0585937425494194,0.22265625,0.9624022841453552,0.989559088108541,0.4558563232421875,1.3217926025390625,0.8182525634765625,1.620024052044549
1781025875.734232,-0.06689453125,0.21630859375,0.9565429091453552,0.9829743755955793,0.392913818359375,1.38092041015625,0.5779266357421875,1.5476826690714518
1781025875.742247,-0.0688476487994194,0.224609375,0.9687499403953552,0.996827877368557,0.270843505859375,1.01470947265625,0.5779266357421875,1.198745475430379
1781025875.750262,-0.06201171875,0.224609375,0.9594725966453552,0.9873613767580744,0.1506805419921875,0.8945465087890625,0.6999969482421875,1.1458245108523972
1781025875.758277,-0.0561523400247097,0.2231445163488388,0.9667968153953552,0.9938021144701839,-0.2765655517578125,0.5893707275390625,1.0662078857421875,1.249258025596735
1781025875.76895,-0.06884765625,0.2221679538488388,0.9648436903953552,0.9924827184310193,-0.0934600830078125,0.4062652587890625,0.8831024169921875,0.9765531867298445
1781025875.779623,-0.0629882737994194,0.232421875,0.9580077528953552,0.987808840425289,-0.3376007080078125,0.1621246337890625,1.0662078857421875,1.130069860914554
1781025875.790296,-0.0585937462747097,0.2119140475988388,0.9653319716453552,0.9900538400273678,-0.2155303955078125,-0.0209808349609375,1.0662078857421875,1.087976471456179
1781025875.798287,-0.0600585900247097,0.2158203125,0.9716796278953552,0.9971693641454343,-0.3986358642578125,-0.5092620849609375,0.7610321044921875,0.9987133159816896
1781025875.806277,-0.0600585900247097,0.2236327975988388,0.9609374403953552,0.9884429304472849,0.026702880859375,-0.38909912109375,0.0896453857421875,0.4001842888807409
1781025875.814267,-0.0507812462747097,0.2255859375,0.9604491591453552,0.9878918652737183,0.1506805419921875,-0.6923675537109375,-0.0362396240234375,0.7095003632952469
1781025875.822257,-0.0561523400247097,0.2221679538488388,0.9619140028953552,0.9888327634002606,0.3337860107421875,-0.6923675537109375,-0.0362396240234375,0.7694798507746722
1781025875.832943,-0.0629882737994194,0.21728515625,0.9672850966453552,0.9933885543708623,0.0286102294921875,-0.6923675537109375,-0.8869171142578125,1.125528028183514
1781025875.843629,-0.0654296800494194,0.2294921875,0.9672850966453552,0.9962871901952361,0.3337860107421875,-0.6923675537109375,-0.8296966552734375,1.1310094916360256
1781025875.854315,-0.0634765550494194,0.22265625,0.9658202528953552,0.9931836887544279,0.026702880859375,-0.45013427734375,-1.0700225830078125,1.1611555622020164
1781025875.864968,-0.0693359375,0.2280273288488388,0.9721679091453552,1.0009567315838344,0.2727508544921875,-0.2040863037109375,-0.3414154052734375,0.4822952694632584
1781025875.87562,-0.07470703125,0.2285156100988388,0.9555663466453552,0.9853464200057684,0.7610321044921875,-0.0209808349609375,0.3948211669921875,0.8576093594455104
1781025875.886272,-0.07568359375,0.2226562350988388,0.9721679091453552,1.0002071030358444,0.392913818359375,-0.14495849609375,-0.1583099365234375,0.44772343053447683
1781025875.894267,-0.0615234337747097,0.2182617038488388,0.9599608778953552,0.9863813620299455,0.2727508544921875,-0.0209808349609375,0.5779266357421875,0.6394000472021875
1781025875.902263,-0.06884765625,0.2167968600988388,0.9526366591453552,0.9794169095270192,0.4558563232421875,-0.1430511474609375,0.1468658447265625,0.4998381683875526
1781025875.910259,-0.0590820237994194,0.224609375,0.9555663466453552,0.9833855295433612,0.270843505859375,-0.14495849609375,0.3948211669921875,0.5002528602227396
1781025875.918255,-0.0610351525247097,0.21044921875,0.9541015028953552,0.9789401622894912,0.1506805419921875,0.1010894775390625,-0.1583099365234375,0.2408022927761171
1781025875.928985,-0.0507812462747097,0.2182617038488388,0.9501952528953552,0.9762622214164999,-0.0324249267578125,-0.3871917724609375,-0.2765655517578125,0.47692488816981987
1781025875.939715,-0.0537109300494194,0.21923828125,0.9570311903953552,0.9832898796193208,-0.3376007080078125,-1.0585784912109375,-0.6427764892578125,1.2836371275576286
1781025875.950445,-0.04736328125,0.21923828125,0.9750975966453552,1.0005618558388925,-0.3376007080078125,-0.6923675537109375,-1.5010833740234375,1.6871865229572667
1781025875.961238,-0.0493163987994194,0.21826171875,0.9697265028953552,0.9952084080633076,-0.461578369140625,-1.06048583984375,-1.5010833740234375,1.8949765442182154
1781025875.972032,-0.064453125,0.2319335788488388,0.9638671278953552,0.9934723099096106,-0.335693359375,-0.63323974609375,-1.3751983642578125,1.5507588944187014
1781025875.982826,-0.0615234337747097,0.2216796725988388,0.9633788466453552,0.9904674716065613,-0.3376007080078125,-0.5702972412109375,-1.1310577392578125,1.3109175378013584
1781025875.993306,-0.0727538987994194,0.224609375,0.9570311903953552,0.9857236937996151,-0.0324249267578125,-0.2040863037109375,-0.6427764892578125,0.6751771696230858
1781025876.003787,-0.0722656175494194,0.22216796875,0.9633788466453552,0.9913020367083055,-0.3376007080078125,0.7114410400390625,-0.4596710205078125,0.9118223722819774
1781025876.014268,-0.06982421875,0.2319335788488388,0.9658202528953552,0.9957295654064543,-0.2765655517578125,0.6504058837890625,0.2727508544921875,0.7575680475790628
1781025876.02227,-0.0615234375,0.2197265625,0.9667968153953552,0.9933584337430691,-0.0934600830078125,0.7724761962890625,0.6351470947265625,1.0044232638129398
1781025876.03027,-0.0581054612994194,0.22021484375,0.9643554091453552,0.9908845428144294,-0.152587890625,1.01470947265625,0.8831024169921875,1.3538051030931872
1781025876.03827,-0.0541992112994194,0.21044921875,0.9604491591453552,0.9847278890541206,-0.3376007080078125,0.8335113525390625,0.9441375732421875,1.303883112118
1781025876.04627,-0.0561523400247097,0.2182617038488388,0.9560546278953552,0.9822584732021277,-0.0934600830078125,0.6504058837890625,0.5779266357421875,0.8750781662706147
1781025876.05427,-0.0419921875,0.21533203125,0.9672850966453552,0.9918526532129156,-0.278472900390625,0.40435791015625,-0.3414154052734375,0.5980108316041797
1781025876.06227,-0.0512695275247097,0.2358398288488388,0.9487304091453552,0.9789475872390563,-0.095367431640625,0.34332275390625,-0.7648468017578125,0.8437749051297125
1781025876.07027,-0.0634765550494194,0.21923828125,0.9672850966453552,0.9938486580956932,-0.2155303955078125,0.1010894775390625,-0.6427764892578125,0.6854444171480817
1781025876.07827,-0.0512695275247097,0.2338867038488388,0.9614257216453552,0.9907931029893039,0.026702880859375,0.09918212890625,-1.0700225830078125,1.074941145685324
1781025876.088953,-0.0625,0.228515625,0.9682616591453552,0.9968230943552907,-0.278472900390625,0.03814697265625,-1.1310577392578125,1.1654586896624854
1781025876.099636,-0.06689453125,0.23046875,0.9619140028953552,0.991397635665874,-0.3376007080078125,0.1010894775390625,-0.7038116455078125,0.7871112709578688
1781025876.110319,-0.0595703050494194,0.21875,0.9711913466453552,0.9973027702470797,-0.461578369140625,0.164031982421875,-0.4596710205078125,0.6717577905841235
1781025876.121037,-0.06640625,0.2138671725988388,0.9726561903953552,0.9981027112822054,0.1506805419921875,0.1010894775390625,0.0896453857421875,0.20238577862351295
1781025876.131754,-0.0791015550494194,0.22412109375,0.9648436903953552,0.9936853966777718,0.5168914794921875,-0.2040863037109375,0.6351470947265625,0.8439430388797626
1781025876.142471,-0.0532226487994194,0.220703125,0.9721679091453552,0.9983250789707947,0.5779266357421875,-0.5092620849609375,1.1234283447265625,1.3621447475265278
1781025876.153069,-0.0410156212747097,0.2128906100988388,0.9594725966453552,0.9836627251096723,0.3337860107421875,0.1010894775390625,0.5779266357421875,0.675004725714263
1781025876.163667,-0.06201171875,0.23046875,0.9687499403953552,0.9977162647791685,0.209808349609375,0.70953369140625,-0.5817413330078125,0.9412122934471776
1781025876.174265,-0.0556640587747097,0.2353515625,0.9526366591453552,0.982855762438258,-0.2155303955078125,1.0166168212890625,-0.7648468017578125,1.2903308656599617
1781025876.184954,-0.07080078125,0.2231445163488388,0.9653319716453552,0.993313667117732,-0.461578369140625,0.652313232421875,-1.5583038330078125,1.7512504047160231
1781025876.195645,-0.0620117150247097,0.2236327975988388,0.9594725966453552,0.9871396784019826,-0.8869171142578125,0.1621246337890625,-1.4362335205078125,1.6957809675411823
1781025876.206336,-0.08154296875,0.2294921875,0.9672850966453552,0.9974750012247489,-1.3141632080078125,-0.5702972412109375,-1.2531280517578125,1.9033112711053128
1781025876.214331,-0.07666015625,0.20947265625,0.9609374403953552,0.9864868664236144,-1.9245147705078125,-1.1806488037109375,-0.0934600830078125,2.2597396944609867
1781025876.222325,-0.0722656175494194,0.19775390625,0.9672850966453552,0.9899340306854527,-1.9855499267578125,-0.9365081787109375,0.0896453857421875,2.1971555192169028
1781025876.230319,-0.0673828050494194,0.20361328125,0.9619140028953552,0.9855340479576974,-1.6803741455078125,-0.5702972412109375,0.5779266357421875,1.866251700206647
1781025876.238313,-0.0561523400247097,0.21044921875,0.9667968153953552,0.9910287792094317,-1.0700225830078125,0.1010894775390625,0.7610321044921875,1.3169423961144389
1781025876.248989,-0.07080078125,0.2172851413488388,0.9614257216453552,0.9882130344808691,-1.0700225830078125,0.1010894775390625,1.0662078857421875,1.513924260402302
1781025876.259665,-0.0581054612994194,0.2109375,0.9633788466453552,0.9879117752627524,-0.5207061767578125,0.2231597900390625,1.2493133544921875,1.3717576579398194
1781025876.270341,-0.0517578087747097,0.2075195163488388,0.9663085341453552,0.9896946011760196,-0.3376007080078125,-0.5092620849609375,1.0662078857421875,1.2288699544072852
1781025876.280997,-0.0405273362994194,0.21923828125,0.9682616591453552,0.9935987769335751,-0.0934600830078125,-0.6923675537109375,0.8182525634765625,1.0759390662037795
1781025876.291654,-0.0585937425494194,0.2275390625,0.9716796278953552,0.9996842255913526,0.2727508544921875,-0.3261566162109375,0.1468658447265625,0.44982301327481455
1781025876.302311,-0.04736328125,0.21044921875,0.9687499403953552,0.9924759952257063,0.2117156982421875,-0.2040863037109375,-0.5245208740234375,0.6013292804536303
1781025876.310318,-0.0454101525247097,0.2158203125,0.9619140028953552,0.9868733648275652,0.3948211669921875,-0.6923675537109375,-0.8296966552734375,1.1505012486341204
1781025876.318327,-0.0693359300494194,0.22412109375,0.9731444716453552,1.0010234255767603,-0.0934600830078125,-0.0820159912109375,-0.5245208740234375,0.53905802768946
1781025876.326336,-0.07177734375,0.21142578125,0.9775390028953552,1.0027139922403716,-0.217437744140625,-0.14495849609375,-0.1583099365234375,0.30553915325008746
1781025876.334345,-0.0751953050494194,0.21044921875,0.9672850966453552,0.9927656650822362,0.2727508544921875,-0.0209808349609375,-0.2155303955078125,0.34826222225448256
1781025876.344996,-0.07666015625,0.22412109375,0.9687499403953552,0.9972880683312997,0.0896453857421875,0.1010894775390625,0.6351470947265625,0.649359076007704
1781025876.355647,-0.0693359300494194,0.21630859375,0.9624022841453552,0.9888453041068241,-0.0934600830078125,0.2841949462890625,1.2493133544921875,1.2846343496593078
1781025876.366298,-0.0595703087747097,0.2221679538488388,0.9575194716453552,0.9847592396037187,0.2117156982421875,0.1621246337890625,1.7375946044921875,1.7579371272385642
1781025876.376942,-0.0683593675494194,0.22265625,0.9614257216453552,0.9892361836473185,0.3337860107421875,-0.0209808349609375,1.5544891357421875,1.5900596748371851
1781025876.387585,-0.0585937425494194,0.23486328125,0.9604491591453552,0.9904830007872342,0.0896453857421875,0.4673004150390625,1.4934539794921875,1.5674216924432292
1781025876.398228,-0.0444335900247097,0.2221679538488388,0.9663085341453552,0.9925145474006962,0.3337860107421875,0.8335113525390625,0.9441375732421875,1.3029006228359583
1781025876.408905,-0.0605468712747097,0.2324218600988388,0.9682616591453552,0.9976053755087111,-0.5207061767578125,0.7724761962890625,0.0896453857421875,0.9358903202468878
1781025876.419584,-0.0600585862994194,0.224609375,0.9575194716453552,0.9853425514541507,-0.3376007080078125,0.4062652587890625,-0.2155303955078125,0.5705077124229561
1781025876.430263,-0.0527343712747097,0.2211913913488388,0.9594725966453552,0.9860498005851198,-0.152587890625,0.34332275390625,-0.4596710205078125,0.5936758583687333
1781025876.438273,-0.0483398362994194,0.2236328125,0.9667968153953552,0.9935011106479525,-0.5207061767578125,0.4673004150390625,-0.0934600830078125,0.7058607423034983
1781025876.446282,-0.0673828050494194,0.21044921875,0.9580077528953552,0.9831623318132268,-0.461578369140625,0.34332275390625,-0.4596710205078125,0.7363576245975758
1781025876.454291,-0.0688476487994194,0.21337890625,0.9697265028953552,0.9953090207545141,-0.5207061767578125,0.2841949462890625,-0.2155303955078125,0.6311537383219207
1781025876.4623,-0.0683593675494194,0.203125,0.9648436903953552,0.9883603167127283,-0.644683837890625,0.40435791015625,0.3299713134765625,0.829459847166072
1781025876.472956,-0.0532226487994194,0.220703125,0.9750975966453552,1.001178227247047,-0.5207061767578125,0.5283355712890625,0.0286102294921875,0.7423556719219393
1781025876.483612,-0.0610351525247097,0.2221679538488388,0.9624022841453552,0.9895969109133735,-0.278472900390625,0.34332275390625,0.2117156982421875,0.4901440670699947
1781025876.494268,-0.0585937462747097,0.2119140475988388,0.9697265028953552,0.9943391177510232,-0.1544952392578125,0.5893707275390625,0.3948211669921875,0.7260236823536305
1781025876.502267,-0.0532226525247097,0.2216796725988388,0.9702147841453552,0.9966399828220381,0.1506805419921875,-0.0820159912109375,0.0286102294921875,0.17392467847021478
1781025876.510267,-0.0561523400247097,0.22021484375,0.9526366591453552,0.9793693210662213,-0.0324249267578125,0.1621246337890625,-0.0362396240234375,0.16926040028857087
1781025876.518267,-0.0693359300494194,0.21630859375,0.9663085341453552,0.9926475014263954,0.0286102294921875,-0.2040863037109375,-0.2155303955078125,0.2981997920551635
1781025876.526267,-0.0688476487994194,0.21435546875,0.9663085341453552,0.9921897242414807,0.026702880859375,-0.14495849609375,-0.7648468017578125,0.7789201753678654
1781025876.536927,-0.068359375,0.2211913913488388,0.9721679091453552,0.9993543312205524,-0.0934600830078125,-0.8144378662109375,-0.9479522705078125,1.2532586852661223
1781025876.547587,-0.0649413987994194,0.23046875,0.9619140028953552,0.9912677635083031,0.026702880859375,-0.324249267578125,-1.1920928955078125,1.2356925600210358
1781025876.558247,-0.06689453125,0.2226562350988388,0.9716796278953552,0.999105588317072,0.209808349609375,-0.57220458984375,-0.6427764892578125,0.885776072913839
1781025876.568985,-0.0703124925494194,0.2099609375,0.9658202528953552,0.9908764821042222,0.335693359375,-0.63323974609375,-0.3986358642578125,0.8201177719290828
1781025876.579722,-0.052734375,0.220703125,0.9545897841453552,0.9811892985994507,0.1506805419921875,-0.2651214599609375,-0.6427764892578125,0.7114461535558942
1781025876.590459,-0.0502929650247097,0.2124023288488388,0.9692382216453552,0.9935123863997055,0.0286102294921875,-0.5092620849609375,-0.3986358642578125,0.6473615440253845
1781025876.598407,-0.0537109300494194,0.21533203125,0.9648436903953552,0.9900384308625361,0.1506805419921875,-0.3261566162109375,-0.7038116455078125,0.7902111087460382
1781025876.606355,-0.0595703087747097,0.2226562350988388,0.9638671278953552,0.9910420076632195,-0.0934600830078125,-0.2040863037109375,-0.9479522705078125,0.9741660606072956
1781025876.614303,-0.0541992112994194,0.228515625,0.9707030653953552,0.998709861042014,0.152587890625,-0.14495849609375,-0.6427764892578125,0.6763561525540722
1781025876.622251,-0.0532226487994194,0.23388671875,0.9604491591453552,0.9899486021283569,-0.0324249267578125,-0.5092620849609375,-0.8296966552734375,0.9740614902694491
1781025876.632945,-0.0625,0.22021484375,0.9677733778953552,0.9944778219602601,-0.0934600830078125,-0.6923675537109375,-0.6427764892578125,0.9493520062074414
1781025876.643639,-0.0615234375,0.224609375,0.9658202528953552,0.9935005111234493,0.087738037109375,-0.63323974609375,-0.5245208740234375,0.8269296744433554
1781025876.654333,-0.0615234337747097,0.2319335788488388,0.9687499403953552,0.9980254330011165,0.392913818359375,-0.14495849609375,-0.6427764892578125,0.7671739368553291
1781025876.664978,-0.0502929650247097,0.220703125,0.9589843153953552,0.9853375913310323,-0.0324249267578125,-0.2651214599609375,-0.3986358642578125,0.47984509654641844
1781025876.675621,-0.0581054612994194,0.2275390625,0.9750975966453552,1.0029783609728302,0.1506805419921875,0.2841949462890625,-0.3414154052734375,0.4690798143059751
1781025876.686264,-0.0625,0.22021484375,0.9619140028953552,0.9887767070345065,0.0896453857421875,0.1621246337890625,0.2727508544921875,0.3297176378241262
1781025876.69425,-0.06201171875,0.21484375,0.9648436903953552,0.9904174054771653,0.2117156982421875,0.1010894775390625,0.6999969482421875,0.7382671243524753
1781025876.702235,-0.0551757775247097,0.220703125,0.9619140028953552,0.988449687529106,0.2727508544921875,0.7724761962890625,0.4520416259765625,0.9356570600786226
1781025876.71022,-0.0488281175494194,0.2255859375,0.9682616591453552,0.9953913003598583,0.026702880859375,0.58746337890625,0.2727508544921875,0.6482432367779526
1781025876.718205,-0.0488281175494194,0.22265625,0.9643554091453552,0.990929536281661,-0.0934600830078125,0.5893707275390625,0.5168914794921875,0.7894741561111254
1781025876.728907,-0.0449218675494194,0.2109375,0.9643554091453552,0.9881770885009847,-0.1544952392578125,0.7724761962890625,0.0896453857421875,0.7928584665445735
1781025876.739609,-0.0541992150247097,0.2221679538488388,0.9682616591453552,0.9949003946112347,-0.278472900390625,0.34332275390625,0.0286102294921875,0.4429855695542848
1781025876.750311,-0.0532226487994194,0.21240234375,0.9707030653953552,0.9950938886073307,0.026702880859375,0.164031982421875,-0.4596710205078125,0.4887913483257801
1781025876.758322,-0.0532226487994194,0.20556640625,0.9555663466453552,0.9788754979898707,-0.095367431640625,0.03814697265625,-0.1583099365234375,0.18871188235673125
1781025876.766332,-0.0673828050494194,0.21044921875,0.9707030653953552,0.9955369190827393,0.026702880859375,0.34332275390625,0.0286102294921875,0.3455460930578685
1781025876.774342,-0.0722656175494194,0.2275390625,0.9550780653953552,0.984464552659217,0.186920166015625,0.61798095703125,-0.1659393310546875,0.666614936306895
1781025876.782352,-0.0683593675494194,0.20654296875,0.9746093153953552,0.9985971754051897,0.2498626708984375,0.8640289306640625,0.2040863037109375,0.9222952708842094
1781025876.793013,-0.0605468712747097,0.21142578125,0.9716796278953552,0.9962570370467578,1.1043548583984375,0.0705718994140625,0.6313323974609375,1.2740332186952257
1781025876.803674,-0.0488281175494194,0.220703125,0.9624022841453552,0.9885910231113686,1.224517822265625,-0.720977783203125,1.0585784912109375,1.7719597295009462
1781025876.814335,-0.0537109300494194,0.234375,0.9663085341453552,0.9957754203603937,1.4667510986328125,-0.6008148193359375,0.9937286376953125,1.8707842841573208
1781025876.824977,-0.0478515625,0.244140625,0.9516600966453552,0.9836418842018313,0.553131103515625,0.67901611328125,-0.2841949462890625,0.920751685998039
1781025876.835619,-0.0532226487994194,0.23974609375,0.9462890028953552,0.9776368020969217,0.064849853515625,1.28936767578125,-1.0776519775390625,1.6816683060414717
1781025876.846261,-0.0561523400247097,0.2260742038488388,0.9580077528953552,0.9859216426997355,-0.6084442138671875,1.0471343994140625,-1.3828277587890625,1.8381804651073548
1781025876.854258,-0.0590820237994194,0.22998046875,0.9604491591453552,0.9893655991824886,-1.0318756103515625,0.2536773681640625,-1.2607574462890625,1.648826498067754
1781025876.862257,-0.06689453125,0.2172851413488388,0.9633788466453552,0.989841660633597,-1.583099365234375,-0.48065185546875,-0.8945465087890625,1.8808092042410185
1781025876.870256,-0.083984375,0.2119140475988388,0.9711913466453552,0.9975838664556891,-1.583099365234375,-0.904083251953125,-0.4062652587890625,1.8677852090555174
1781025876.878255,-0.0722656175494194,0.21728515625,0.9599608778953552,0.9868941410789746,-1.094818115234375,-0.84686279296875,-0.1659393310546875,1.3940369999218307
1781025876.888989,-0.06494140625,0.2177734225988388,0.9687499403953552,0.9950472837268309,-1.0318756103515625,-0.9059906005859375,0.2040863037109375,1.3882497840629655
1781025876.899723,-0.0678710862994194,0.22314453125,0.9731444716453552,1.0007048160552456,-0.728607177734375,-0.720977783203125,0.5702972412109375,1.1729945978781615
1781025876.910457,-0.07470703125,0.2080077975988388,0.9521483778953552,0.9774635123158635,-0.6694793701171875,-0.1735687255859375,0.9365081787109375,1.1642062954247026
1781025876.921059,-0.0507812462747097,0.22509765625,0.9746093153953552,1.0015542958211796,-0.118255615234375,0.12969970703125,1.2989044189453125,1.3107093858266647
1781025876.931661,-0.06298828125,0.2211913913488388,0.9604491591453552,0.9876010036875642,-0.1811981201171875,-0.4787445068359375,1.4247894287109375,1.5139530962767729
1781025876.942263,-0.0532226487994194,0.20751953125,0.9633788466453552,0.9869122597065967,-0.1811981201171875,-0.4177093505859375,1.1806488037109375,1.265403278802847
1781025876.95056,-0.0429687462747097,0.2177734225988388,0.9750975966453552,1.000043448921286,0.0019073486328125,-0.9670257568359375,0.9937286376953125,1.3865926069825651
1781025876.958859,-0.0405273400247097,0.2138671725988388,0.9677733778953552,0.9919510793219019,0.064849853515625,-0.54168701171875,0.6923675537109375,0.8814778225216192
1781025876.967158,-0.0546874925494194,0.208984375,0.9658202528953552,0.9896837635014183,0.3070831298828125,-0.4787445068359375,0.3871917724609375,0.6880507395139196
1781025876.975457,-0.0566406212747097,0.2084960788488388,0.9580077528953552,0.9820680370938331,0.370025634765625,-0.35858154296875,0.0171661376953125,0.515552489689389
1781025876.985754,-0.0629882737994194,0.22900390625,0.9672850966453552,0.9960174546192468,0.4901885986328125,-0.2346038818359375,-0.2841949462890625,0.6132622694233962
1781025876.996051,-0.0571289025247097,0.2216796725988388,0.9536132216453552,0.9807057485525613,0.064849853515625,-0.232696533203125,-0.1010894775390625,0.2618630606536013
1781025877.006348,-0.0722656175494194,0.212890625,0.9721679091453552,0.997825225810984,0.0019073486328125,-0.4177093505859375,-0.1010894775390625,0.4297718255247235
1781025877.01441,-0.0600585900247097,0.2138671725988388,0.9736327528953552,0.99865256183608,0.3070831298828125,-0.2346038818359375,1.1196136474609375,1.184429714931156
1781025877.022473,-0.05712890625,0.22412109375,0.9785155653953552,1.005478338063038,0.431060791015625,0.00762939453125,0.9937286376953125,1.0832212232908436
1781025877.030536,-0.0502929612994194,0.22509765625,0.9638671278953552,0.9910792990688227,0.6732940673828125,-0.2956390380859375,1.1196136474609375,1.339500676220081
1781025877.038599,-0.0576171875,0.22412109375,0.9697265028953552,0.9969551120169663,0.6732940673828125,0.6809234619140625,0.9937286376953125,1.3800283575107088
1781025877.04917,-0.0537109337747097,0.2221679538488388,0.9604491591453552,0.9872720250403892,0.431060791015625,0.98419189453125,0.8754730224609375,1.3859654050043662
1781025877.059741,-0.0419921837747097,0.2270507663488388,0.9609374403953552,0.9882895114040929,0.1850128173828125,1.0471343994140625,0.6313323974609375,1.2366490161383505
1781025877.070312,-0.0649413987994194,0.220703125,0.9550780653953552,0.9823957276281923,0.1239776611328125,0.8640289306640625,0.5054473876953125,1.008659266161007
1781025877.080978,-0.0561523400247097,0.2353515625,0.9687499403953552,0.9985088333497337,0.064849853515625,1.049041748046875,0.5054473876953125,1.1662637584930164
1781025877.091644,-0.0620117150247097,0.2226562350988388,0.9653319716453552,0.9926162739495077,0.1239776611328125,0.9250640869140625,0.8754730224609375,1.2796745830151508
1781025877.10231,-0.06689453125,0.22900390625,0.9799804091453552,1.0086026322083508,-0.179290771484375,0.92315673828125,0.5702972412109375,1.0998192976604588
1781025877.112998,-0.0678710862994194,0.216796875,0.9716796278953552,0.9978820915479367,-0.4863739013671875,1.1692047119140625,0.7534027099609375,1.47350428356
1781025877.123688,-0.0605468712747097,0.2211913913488388,0.9721679091453552,0.9988503385392844,-0.240325927734375,1.16729736328125,0.5054473876953125,1.2945334092223197
1781025877.134378,-0.0639648362994194,0.20849609375,0.9604491591453552,0.9848983240390046,-0.301361083984375,1.10626220703125,0.5702972412109375,1.2805754632112456
1781025877.145025,-0.0605468712747097,0.2211913913488388,0.9663085341453552,0.9931483969629799,-0.1811981201171875,0.8640289306640625,0.5702972412109375,1.0510079424491958
1781025877.155672,-0.0673828050494194,0.2265625,0.9526366591453552,0.9815231088314741,-0.057220458984375,0.92315673828125,0.1430511474609375,0.9359253042579572
1781025877.166319,-0.0683593675494194,0.21337890625,0.9638671278953552,0.9895672796740219,-0.057220458984375,0.80108642578125,0.3871917724609375,0.891589093225575
1781025877.174299,-0.0507812462747097,0.2167968600988388,0.9550780653953552,0.9806904325633358,0.1239776611328125,-0.0514984130859375,0.0171661376953125,0.13534113673863823
1781025877.18228,-0.0620117150247097,0.2275390475988388,0.9584960341453552,0.9870836430895137,0.247955322265625,-0.232696533203125,-0.0400543212890625,0.3423943151667832
1781025877.190261,-0.06591796875,0.21142578125,0.9780272841453552,1.0027878180921617,0.1850128173828125,-0.4787445068359375,0.2040863037109375,0.5523379986782586
1781025877.198242,-0.06689453125,0.21533203125,0.9653319716453552,0.9913165879143339,0.3681182861328125,-0.2956390380859375,-0.2231597900390625,0.5222200736433023
1781025877.208912,-0.05712890625,0.21533203125,0.9658202528953552,0.9911812934647325,0.4901885986328125,-0.4177093505859375,0.0171661376953125,0.644252000446953
1781025877.219582,-0.0605468712747097,0.2216796725988388,0.9658202528953552,0.9927822328021048,0.247955322265625,-0.84686279296875,0.0171661376953125,0.8825832018784724
1781025877.230252,-0.0507812462747097,0.2241210788488388,0.9716796278953552,0.9984839969796392,0.7953643798828125,-0.7228851318359375,-0.1659393310546875,1.0875216191904917
1781025877.238263,-0.0581054612994194,0.208984375,0.9682616591453552,0.9922607289406726,0.553131103515625,-0.66375732421875,-0.4062652587890625,0.9547666016516245
1781025877.246275,-0.0488281175494194,0.22900390625,0.9692382216453552,0.9971207070557854,0.553131103515625,-0.84686279296875,-0.4711151123046875,1.115831553969103
1781025877.254287,-0.0610351525247097,0.2275390475988388,0.9731444716453552,1.0012539491656545,0.6122589111328125,-0.8449554443359375,-0.6542205810546875,1.231590534979062
1781025877.262299,-0.0551757775247097,0.2158203125,0.9672850966453552,0.9926042675231999,0.186920166015625,-1.02996826171875,-0.6542205810546875,1.2344141676466556
1781025877.272981,-0.04248046875,0.208984375,0.9790038466453552,1.0019618710139435,0.1850128173828125,-0.9670257568359375,-0.7114410400390625,1.2147085701648386
1781025877.283663,-0.0629882737994194,0.21875,0.9570311903953552,0.983731561212601,0.3681182861328125,-0.7839202880859375,-0.8945465087890625,1.2450925857320003
1781025877.294345,-0.0585937425494194,0.212890625,0.9614257216453552,0.9864558090052135,0.247955322265625,-0.904083251953125,-0.7114410400390625,1.1768588367998307
1781025877.304985,-0.06298828125,0.2216796725988388,0.9658202528953552,0.9929341175129422,0.553131103515625,-0.48065185546875,-0.3452301025390625,0.8100395345543925
1781025877.315626,-0.0673828050494194,0.2158203125,0.9541015028953552,0.9805246185237274,0.1850128173828125,-0.2346038818359375,0.0820159912109375,0.3098311585085158
1781025877.326267,-0.0551757775247097,0.2089843600988388,0.9619140028953552,0.9858992738396468,0.3070831298828125,-0.3566741943359375,0.0820159912109375,0.47774800091484104
1781025877.336912,-0.0488281175494194,0.21875,0.9589843153953552,0.9848282412368757,0.247955322265625,-0.232696533203125,0.2651214599609375,0.4311831477880623
1781025877.347559,-0.0405273400247097,0.2187499850988388,0.9599608778953552,0.9854029167603685,0.247955322265625,0.072479248046875,0.4482269287109375,0.5173417273513999
1781025877.358206,-0.06982421875,0.2231445163488388,0.9687499403953552,0.9965667783528654,0.1239776611328125,0.0095367431640625,0.5054473876953125,0.5205175037000728
1781025877.366217,-0.0556640550494194,0.21484375,0.9648436903953552,0.9900402369774348,0.553131103515625,0.49591064453125,-0.1010894775390625,0.7497335976898284
1781025877.374227,-0.0522460900247097,0.2167968600988388,0.9653319716453552,0.9907554430596354,0.4901885986328125,0.3147125244140625,-0.0400543212890625,0.5838948397670594
1781025877.382237,-0.0517578087747097,0.21630859375,0.9692382216453552,0.9944299919036597,0.370025634765625,0.43487548828125,-0.1659393310546875,0.5946188041783043
1781025877.390247,-0.0434570275247097,0.2211913913488388,0.9643554091453552,0.9903512003304807,0.858306884765625,0.00762939453125,0.2651214599609375,0.8983531068732408
1781025877.400944,-0.0610351525247097,0.2182617038488388,0.9648436903953552,0.9911038331610068,0.736236572265625,0.31280517578125,-0.2231597900390625,0.8304767668196709
1781025877.411641,-0.0561523400247097,0.2187499850988388,0.9560546278953552,0.9823670865776799,0.7953643798828125,0.6198883056640625,-0.4062652587890625,1.0871602774128464
1781025877.422338,-0.0551757775247097,0.21630859375,0.9721679091453552,0.997468905644487,0.4901885986328125,0.4978179931640625,-0.1010894775390625,0.7059225871273817
1781025877.43299,-0.0639648362994194,0.21826171875,0.9633788466453552,0.9898628593488344,0.8563995361328125,0.1926422119140625,0.2040863037109375,0.9012116325603171
1781025877.443642,-0.0571289025247097,0.2236327975988388,0.9682616591453552,0.9953923750142338,0.919342041015625,0.12969970703125,0.2040863037109375,0.950611919631329
1781025877.454294,-0.0585937425494194,0.2275390625,0.9628905653953552,0.9911435277278026,1.041412353515625,-0.17547607421875,0.2651214599609375,1.0888622186530288
1781025877.464966,-0.0517578087747097,0.2412109225988388,0.9589843153953552,0.990208309965353,0.6732940673828125,0.8640289306640625,-0.3452301025390625,1.1485010743993695
1781025877.475638,-0.0541992112994194,0.244140625,0.9667968153953552,0.9986181860648594,0.370025634765625,1.65557861328125,-0.5893707275390625,1.7958890192932007
1781025877.48631,-0.0620117150247097,0.2358398288488388,0.9663085341453552,0.9966032615007341,0.1239776611328125,1.4743804931640625,-0.7114410400390625,1.6417419567442777
1781025877.494288,-0.06298828125,0.2216796725988388,0.9594725966453552,0.9867608953194984,-0.118255615234375,1.47247314453125,-0.8373260498046875,1.698021338376444
1781025877.502266,-0.0732421875,0.2368163913488388,0.9477538466453552,0.9796345109643387,-0.8525848388671875,0.6809234619140625,-0.1010894775390625,1.0957995943238619
1781025877.510244,-0.06640625,0.20068359375,0.9736327528953552,0.9963154281401374,-1.216888427734375,0.31280517578125,0.2040863037109375,1.272916235622663
1781025877.518222,-0.06591796875,0.2260742038488388,0.9702147841453552,0.9983844207639814,-1.3408660888671875,-0.2956390380859375,0.4482269287109375,1.444379343779191
1781025877.528899,-0.0673828050494194,0.20947265625,0.9746093153953552,0.9991409078744408,-1.583099365234375,-0.54168701171875,0.6313323974609375,1.7883537163978622
1781025877.539576,-0.0571289025247097,0.2036132663488388,0.9711913466453552,0.9939490457441666,-1.216888427734375,-0.66375732421875,0.7534027099609375,1.5776586685288927
1781025877.550253,-0.0546874962747097,0.21142578125,0.9697265028953552,0.9940126124167764,-1.1577606201171875,-0.3566741943359375,0.6923675537109375,1.395349047310741
1781025877.558936,-0.0517578125,0.21435546875,0.9663085341453552,0.9911505038590065,-0.118255615234375,-0.17547607421875,0.9937286376953125,1.0160082915672817
1781025877.567622,-0.0493163987994194,0.21875,0.9687499403953552,0.994364177103413,0.1239776611328125,-0.3566741943359375,0.9365081787109375,1.0097695331894452
1781025877.576308,-0.0610351525247097,0.21142578125,0.9638671278953552,0.9886687974534892,0.1239776611328125,-0.5397796630859375,0.9937286376953125,1.137641925439157
1781025877.584994,-0.0502929650247097,0.21142578125,0.9677733778953552,0.9918747674334374,0.186920166015625,-0.54168701171875,0.6313323974609375,0.8526104404778734
1781025877.594739,-0.0517578087747097,0.2182617038488388,0.9643554091453552,0.9901001955782369,0.6122589111328125,-0.5397796630859375,0.7534027099609375,1.1107829231308834
1781025877.604484,-0.0532226487994194,0.20263671875,0.9750975966453552,0.9973512987481095,0.6122589111328125,-0.5397796630859375,0.4482269287109375,0.9311983884030004
1781025877.614229,-0.0468749962747097,0.21630859375,0.9760741591453552,1.0008533544716574,0.4329681396484375,-0.6008148193359375,0.5054473876953125,0.8966141415415662
1781025877.622287,-0.052734375,0.21435546875,0.9565429091453552,0.9816840216311622,0.553131103515625,-0.78582763671875,0.2040863037109375,0.9824104598739682
1781025877.630345,-0.0507812425494194,0.21484375,0.9580077528953552,0.983115164218584,0.675201416015625,-0.54168701171875,0.1430511474609375,0.8773741514565979
1781025877.638403,-0.0585937462747097,0.2270507663488388,0.9648436903953552,0.9929293149554141,0.6122589111328125,-0.4177093505859375,0.2651214599609375,0.7871667322494529
1781025877.646461,-0.0537109300494194,0.21630859375,0.9692382216453552,0.9945335600346159,0.7953643798828125,-0.1735687255859375,0.3223419189453125,0.8755769023890727
1781025877.657056,-0.0624999962747097,0.2265624850988388,0.9497069716453552,0.9783558356652715,1.1043548583984375,-0.2956390380859375,0.6313323974609375,1.305979590266397
1781025877.667651,-0.0605468712747097,0.21630859375,0.9765624403953552,1.0020626384324438,0.9212493896484375,-0.1125335693359375,0.4482269287109375,1.0306656207406673
1781025877.678246,-0.0600585900247097,0.2060546875,0.9633788466453552,0.9869976548301489,0.919342041015625,0.31280517578125,0.9937286376953125,1.3894363863632244
1781025877.686296,-0.0673828050494194,0.21728515625,0.9760741591453552,1.002234526293236,0.6122589111328125,0.8640289306640625,1.6651153564453125,1.973326155899227
1781025877.694347,-0.0585937425494194,0.22021484375,0.9682616591453552,0.9947152580737367,0.4901885986328125,1.3523101806640625,1.2989044189453125,1.9380867825030255
1781025877.702398,-0.06689453125,0.2324218600988388,0.9619140028953552,0.9918534913630778,0.4901885986328125,1.4743804931640625,1.5468597412109375,2.192454733815837
1781025877.710449,-0.0522460900247097,0.2167968600988388,0.9633788466453552,0.9888525343221407,0.064849853515625,1.41143798828125,1.1196136474609375,1.8027471863367877
1781025877.721067,-0.0566406212747097,0.2255859375,0.9594725966453552,0.9872612819763162,0.0019073486328125,1.1692047119140625,0.9365081787109375,1.4980289934221334
1781025877.731685,-0.0478515625,0.21923828125,0.9614257216453552,0.9872662327054631,-0.240325927734375,0.98419189453125,0.5054473876953125,1.1321957863065975
1781025877.742303,-0.0512695275247097,0.21142578125,0.9702147841453552,0.9943068705404776,-0.3032684326171875,0.5588531494140625,-0.0400543212890625,0.6370972716046032
1781025877.750348,-0.0507812425494194,0.2099609375,0.9638671278953552,0.9877763765691012,0.1239776611328125,0.1926422119140625,-0.2231597900390625,0.3198152187770049
1781025877.758393,-0.0576171875,0.20849609375,0.9702147841453552,0.9940357582997893,-0.179290771484375,0.43487548828125,-0.4062652587890625,0.6215410940125052
1781025877.766438,-0.0532226487994194,0.2158203125,0.9624022841453552,0.9877394464943784,-0.057220458984375,0.31280517578125,-0.5893707275390625,0.6696858318658422
1781025877.774483,-0.0678710862994194,0.216796875,0.9707030653953552,0.9969311964890898,0.370025634765625,0.61798095703125,-0.4711151123046875,0.8606793146572199
1781025877.785128,-0.06494140625,0.2260742038488388,0.9580077528953552,0.986461244296613,0.3681182861328125,0.5588531494140625,0.0171661376953125,0.6694195929898901
1781025877.795773,-0.0771484300494194,0.22705078125,0.9628905653953552,0.9923014554321243,0.3070831298828125,0.2536773681640625,0.2651214599609375,0.47847846796808796
1781025877.806418,-0.07666015625,0.2211913913488388,0.9653319716453552,0.9933117469575292,0.431060791015625,0.255584716796875,0.3223419189453125,0.5958533928077455
1781025877.817077,-0.0556640587747097,0.23046875,0.9687499403953552,0.9973418567280936,0.4329681396484375,0.1926422119140625,0.5702972412109375,0.7414926669189505
1781025877.827738,-0.0629882737994194,0.21337890625,0.9677733778953552,0.9930173166826765,0.247955322265625,-0.17547607421875,0.3871917724609375,0.49212921384989594
1781025877.838399,-0.0742187425494194,0.2353515625,0.9702147841453552,1.001107140665287,0.553131103515625,-0.17547607421875,0.3223419189453125,0.6638148710363332
1781025877.846386,-0.0703125,0.23046875,0.9628905653953552,0.9925814492071667,0.5512237548828125,-0.1125335693359375,0.4482269287109375,0.7193182965810289
1781025877.854374,-0.0537109337747097,0.2260742038488388,0.9702147841453552,0.9976528140726391,0.3681182861328125,0.0705718994140625,0.3871917724609375,0.5388960328613583
1781025877.862362,-0.0610351525247097,0.2167968600988388,0.9594725966453552,0.9855525516713001,0.4329681396484375,0.0705718994140625,0.2651214599609375,0.5125731084141621
1781025877.87035,-0.0546874925494194,0.22021484375,0.9780272841453552,1.004003320603034,0.247955322265625,-0.415802001953125,0.0171661376953125,0.48442525011755005
1781025877.881037,-0.0527343712747097,0.2216796725988388,0.9687499403953552,0.9951880416148857,0.3070831298828125,-0.6008148193359375,-0.1659393310546875,0.6948484420239975
1781025877.891724,-0.064453125,0.2231445163488388,0.9536132216453552,0.9814916489688825,0.4901885986328125,-1.3942718505859375,-0.3452301025390625,1.5177162710022802
1781025877.902411,-0.0434570237994194,0.234375,0.9692382216453552,0.9981196741076462,0.3070831298828125,-1.3332366943359375,-0.8945465087890625,1.6346356132695576
1781025877.913032,-0.0615234337747097,0.21142578125,0.9584960341453552,0.9834635943200836,0.3681182861328125,-1.2722015380859375,-1.3828277587890625,1.9147376939338625
1781025877.923653,-0.0629882737994194,0.2080078125,0.9804686903953552,1.004267706113688,0.1239776611328125,-1.0280609130859375,-1.2607574462890625,1.631499016195956
1781025877.934274,-0.07080078125,0.2075195163488388,0.9687499403953552,0.9932540195273667,0.1850128173828125,-0.9670257568359375,-1.3256072998046875,1.6512429470782057
1781025877.942282,-0.0566406212747097,0.21142578125,0.9658202528953552,0.9903119618879729,-0.0553131103515625,-0.7839202880859375,-0.6542205810546875,1.0225434596754488
1781025877.950289,-0.06494140625,0.2270507663488388,0.9658202528953552,0.9942726978290063,0.003814697265625,-0.54168701171875,-0.2231597900390625,0.5858665910173544
1781025877.958296,-0.0624999962747097,0.2231445163488388,0.9624022841453552,0.9899080165546156,0.3070831298828125,-0.4177093505859375,0.0820159912109375,0.5248883434025398
1781025877.966303,-0.0644531175494194,0.22412109375,0.9570311903953552,0.9850346026486004,-0.1811981201171875,-0.2346038818359375,0.2040863037109375,0.3598929833560058
1781025877.976965,-0.0581054612994194,0.224609375,0.9702147841453552,0.997568214883036,-0.0553131103515625,0.1926422119140625,0.2040863037109375,0.28604506873970004
1781025877.987627,-0.0688476487994194,0.208984375,0.9643554091453552,0.9891389300231056,0.3070831298828125,0.1926422119140625,0.2040863037109375,0.41600755982573184
1781025877.998289,-0.046875,0.2294921875,0.9580077528953552,0.9862265380510419,0.1239776611328125,0.1926422119140625,0.4482269287109375,0.5033774546925447
1781025878.006337,-0.0502929650247097,0.2182617038488388,0.9560546278953552,0.9819409377442724,0.3681182861328125,0.3757476806640625,0.3223419189453125,0.6169292543064625
1781025878.014388,-0.0458984337747097,0.2045898288488388,0.9736327528953552,0.9959540159073391,0.431060791015625,0.49591064453125,0.2651214599609375,0.7085408678701851
1781025878.022439,-0.0600585900247097,0.2182617038488388,0.9731444716453552,0.9991273033486133,0.6122589111328125,0.0705718994140625,0.0171661376953125,0.6165517362977905
1781025878.03049,-0.0498046837747097,0.2319335788488388,0.9628905653953552,0.9916813663929136,0.858306884765625,0.43487548828125,-0.2231597900390625,0.9877285510879018
1781025878.041094,-0.0541992112994194,0.23291015625,0.9628905653953552,0.9921405829403741,0.919342041015625,0.00762939453125,-0.4711151123046875,1.0330524890253867
1781025878.051698,-0.0590820237994194,0.23291015625,0.9677733778953552,0.9971575288707499,0.919342041015625,0.43487548828125,-1.0776519775390625,1.4817693016729976
1781025878.062302,-0.0634765625,0.2172851413488388,0.9589843153953552,0.9853390400324649,1.041412353515625,0.560760498046875,-0.7114410400390625,1.3802682274386364
1781025878.072943,-0.0776367112994194,0.2353515625,0.9570311903953552,0.9885982582941016,1.224517822265625,0.12969970703125,-0.0400543212890625,1.2320187740875008
1781025878.083585,-0.0527343712747097,0.2211913913488388,0.9663085341453552,0.9927027393347513,1.041412353515625,0.43487548828125,0.2651214599609375,1.1592867500729178
1781025878.094227,-0.0639648362994194,0.21923828125,0.9628905653953552,0.9896035393912314,0.7953643798828125,0.2536773681640625,0.6313323974609375,1.046679177202256
1781025878.104914,-0.0615234337747097,0.2368163913488388,0.9511718153953552,0.9821379528953217,0.7953643798828125,0.8640289306640625,0.5702972412109375,1.3055226666525788
1781025878.115602,-0.0566406212747097,0.2177734225988388,0.9580077528953552,0.984079406438528,0.4901885986328125,1.9626617431640625,-0.1010894775390625,2.025474034091407
1781025878.12629,-0.0444335900247097,0.2416992038488388,0.9687499403953552,0.9994344881379924,0.4329681396484375,1.5354156494140625,-0.2841949462890625,1.6204102548158843
1781025878.134289,-0.0634765550494194,0.220703125,0.9609374403953552,0.987997928529855,-0.301361083984375,1.10626220703125,-0.2231597900390625,1.1680902642930333
1781025878.142291,-0.06884765625,0.2221679538488388,0.9663085341453552,0.9939068279525215,-0.5435943603515625,0.5588531494140625,-0.3452301025390625,0.8526403080520956
1781025878.150293,-0.0585937425494194,0.22900390625,0.9555663466453552,0.984369371011135,-0.7915496826171875,-0.1125335693359375,0.0820159912109375,0.8037047511948459
1781025878.158295,-0.06494140625,0.2182617038488388,0.9672850966453552,0.9937283410494742,-1.094818115234375,-0.54168701171875,0.3223419189453125,1.2633114567752026
1781025878.168967,-0.0561523400247097,0.2182617038488388,0.9716796278953552,0.997473085313135,-0.911712646484375,-0.78582763671875,0.4482269287109375,1.284387949185198
1781025878.179639,-0.0581054612994194,0.22998046875,0.9682616591453552,0.9968941273827447,-0.8525848388671875,-0.9670257568359375,0.3871917724609375,1.3460895923049654
1781025878.190311,-0.0693359300494194,0.21044921875,0.9599608778953552,0.9852011124424923,-0.6694793701171875,-0.8449554443359375,0.4482269287109375,1.1675014816038083
1781025878.198299,-0.06103515625,0.21484375,0.9731444716453552,0.9984454366195691,-0.545501708984375,-0.54168701171875,0.1430511474609375,0.7819594388199134
1781025878.206288,-0.0712890625,0.2211913913488388,0.9624022841453552,0.9900635931934681,-0.118255615234375,-0.720977783203125,0.2040863037109375,0.758580631027016
1781025878.214277,-0.0610351525247097,0.21533203125,0.9667968153953552,0.9923654849825069,-0.0553131103515625,-0.7839202880859375,0.0820159912109375,0.7901374444131957
1781025878.222266,-0.0444335900247097,0.2329101413488388,0.9770507216453552,1.005410160349163,0.064849853515625,-0.96893310546875,0.2651214599609375,1.0066410755110944
1781025878.232912,-0.0507812462747097,0.2172851413488388,0.9746093153953552,0.9998274277492094,0.1850128173828125,-0.4787445068359375,0.3223419189453125,0.6060778482429937
1781025878.243558,-0.0605468712747097,0.2221679538488388,0.9526366591453552,0.9800720012765183,0.1239776611328125,-0.6618499755859375,0.5054473876953125,0.8419577853853981
1781025878.254204,-0.0473632775247097,0.2231445163488388,0.9633788466453552,0.9900179581190306,0.3681182861328125,-0.2956390380859375,0.5702972412109375,0.7403731874929993
1781025878.2649,-0.07080078125,0.2075195163488388,0.9643554091453552,0.9889683793929772,0.1850128173828125,0.0095367431640625,0.4482269287109375,0.48500316667805693
1781025878.275597,-0.0585937462747097,0.2167968600988388,0.9658202528953552,0.9915860358809357,0.553131103515625,0.31280517578125,0.5702972412109375,0.8538384150439461
1781025878.286294,-0.0566406212747097,0.2172851413488388,0.9711913466453552,0.9968117296802784,0.4329681396484375,0.3757476806640625,0.6923675537109375,0.8988996378387962
1781025878.296957,-0.0590820275247097,0.2265624850988388,0.9624022841453552,0.9904743319030479,0.736236572265625,0.00762939453125,0.8106231689453125,1.0950855765798813
1781025878.307622,-0.0590820275247097,0.2167968600988388,0.9716796278953552,0.9973228483254567,0.736236572265625,0.072479248046875,0.7534027099609375,1.0558944905223069
1781025878.318287,-0.0478515625,0.2451171875,0.9643554091453552,0.9961694448182533,0.6122589111328125,0.1316070556640625,0.5054473876953125,0.8047722989082791
1781025878.326291,-0.0537109337747097,0.2270507663488388,0.9648436903953552,0.9926531427453773,0.6732940673828125,0.2536773681640625,-0.2231597900390625,0.7533109584904597
1781025878.334296,-0.0556640587747097,0.2416992038488388,0.9677733778953552,0.9990507011875939,0.919342041015625,0.92315673828125,-0.5283355712890625,1.4058970900112822
1781025878.342301,-0.0590820275247097,0.2172851413488388,0.9609374403953552,0.9869672147447413,0.4901885986328125,1.2302398681640625,-0.5893707275390625,1.449528492279422
1781025878.358303,-0.07666015625,0.220703125,0.9702147841453552,0.9979495860589643,0.1850128173828125,0.8640289306640625,-0.3452301025390625,0.9486619837010128
1781025878.366299,-0.07470703125,0.2377929538488388,0.9541015028953552,0.9861218521285896,0.3681182861328125,1.0471343994140625,-0.1659393310546875,1.122291131842574
1781025878.374295,-0.07080078125,0.23046875,0.9614257216453552,0.9911952449409072,0.064849853515625,0.80108642578125,0.3223419189453125,0.8659383798985483
1781025878.382291,-0.0551757775247097,0.2158203125,0.9570311903953552,0.9826146106702284,0.064849853515625,0.31280517578125,0.5702972412109375,0.6536753971424525
1781025878.390376,-0.0566406212747097,0.2236327975988388,0.9594725966453552,0.9868168279136958,-0.3643035888671875,0.0095367431640625,0.9365081787109375,1.0049157293644913
1781025878.398461,-0.0458984337747097,0.2260742038488388,0.9589843153953552,0.9863402704154159,-0.240325927734375,-0.05340576171875,0.8106231689453125,0.8471827718722145
1781025878.406546,-0.0654296875,0.20654296875,0.9633788466453552,0.9874410585498995,-0.545501708984375,0.00762939453125,1.1196136474609375,1.2454577639352415
1781025878.414631,-0.05224609375,0.21533203125,0.9663085341453552,0.9913877753717412,-0.789642333984375,-0.05340576171875,0.5054473876953125,0.9390762763125616
1781025878.425173,-0.0610351525247097,0.2246093600988388,0.9580077528953552,0.9858770253410576,-0.6084442138671875,-0.1125335693359375,0.2651214599609375,0.673169781071436
1781025878.435715,-0.037109375,0.21435546875,0.9624022841453552,0.9866830946277128,-0.545501708984375,-0.35858154296875,-0.2841949462890625,0.7119828684448569
1781025878.446257,-0.0454101525247097,0.2216796725988388,0.9580077528953552,0.9843692466770048,-0.301361083984375,-0.720977783203125,-0.5893707275390625,0.9787672457191514
1781025878.456944,-0.0649413987994194,0.21533203125,0.9687499403953552,0.9945158198723038,0.0019073486328125,-0.6618499755859375,-1.5048980712890625,1.644009499100128
1781025878.467631,-0.0615234337747097,0.2236327975988388,0.9633788466453552,0.9909064351537178,0.1239776611328125,-0.4787445068359375,-1.1997222900390625,1.2976518548910259
1781025878.478318,-0.0605468712747097,0.2221679538488388,0.9692382216453552,0.9962164692659857,0.247955322265625,-0.232696533203125,-0.9593963623046875,1.0178756792497157
1781025878.489001,-0.06640625,0.21142578125,0.9638671278953552,0.9890149095203148,0.1239776611328125,-0.4787445068359375,-1.1997222900390625,1.2976518548910259
1781025878.499685,-0.0585937425494194,0.22900390625,0.9682616591453552,0.9966978761463388,0.431060791015625,-0.232696533203125,-0.1659393310546875,0.5172010670006846
1781025878.510369,-0.0693359300494194,0.21826171875,0.9667968153953552,0.9935500648312205,0.247955322265625,0.072479248046875,0.3223419189453125,0.4130852163254415
1781025878.518334,-0.0605468712747097,0.2338867038488388,0.9697265028953552,0.9993690030594735,0.186920166015625,-0.17547607421875,0.1430511474609375,0.2935892230250013
1781025878.526302,-0.0556640587747097,0.2182617038488388,0.9633788466453552,0.9893611377904468,-0.2384185791015625,-0.1125335693359375,-0.1010894775390625,0.28235846995869435
1781025878.53427,-0.0429687462747097,0.2167968600988388,0.9785155653953552,1.0031649432800807,-0.057220458984375,-0.48065185546875,-0.5893707275390625,0.7626652224743558
1781025878.542238,-0.0478515625,0.228515625,0.9604491591453552,0.9884188131585983,-0.3643035888671875,-0.5397796630859375,-1.1425018310546875,1.3150625929992819
1781025878.552964,-0.0517578087747097,0.2226562350988388,0.9536132216453552,0.9806288014811629,-0.1811981201171875,-0.4787445068359375,-1.5048980712890625,1.5895745551968075
1781025878.56369,-0.0434570237994194,0.2109375,0.9716796278953552,0.995260991444259,-0.057220458984375,-0.232696533203125,-1.6880035400390625,1.7049275083344577
1781025878.574416,-0.0561523400247097,0.2226562350988388,0.9614257216453552,0.9884676537752421,-0.057220458984375,-0.66375732421875,-1.4476776123046875,1.5936180331398797
1781025878.58509,-0.0624999962747097,0.2265624850988388,0.9628905653953552,0.9911584384526457,-0.240325927734375,-0.720977783203125,-1.1997222900390625,1.4201757245603281
1781025878.595763,-0.0620117150247097,0.2182617038488388,0.9643554091453552,0.990689143634475,-0.057220458984375,-0.84686279296875,-0.5893707275390625,1.0333482595529633
1781025878.606436,-0.0610351525247097,0.21533203125,0.9702147841453552,0.9956956868944365,0.003814697265625,-0.54168701171875,-0.4062652587890625,0.6771195101892734
1781025878.614418,-0.06640625,0.2187499850988388,0.9682616591453552,0.9948829009439859,0.186920166015625,-0.66375732421875,-0.6542205810546875,0.9505353768234387
1781025878.6224,-0.0478515587747097,0.2128906100988388,0.9584960341453552,0.9830192424453345,-0.057220458984375,-0.66375732421875,-0.4711151123046875,0.8159641017975457
1781025878.630382,-0.06494140625,0.21142578125,0.9721679091453552,0.9970098749736394,-0.057220458984375,-0.232696533203125,-0.4711151123046875,0.5285558688852049
1781025878.638364,-0.06396484375,0.2260742038488388,0.9667968153953552,0.9949357412116869,0.3070831298828125,-0.3566741943359375,-0.4062652587890625,0.6217459208251859
1781025878.649026,-0.0468749962747097,0.2255859375,0.9672850966453552,0.994347393351902,0.1850128173828125,0.1926422119140625,-0.4062652587890625,0.4862018355642155
1781025878.659688,-0.0517578125,0.22509765625,0.9628905653953552,0.9902050630709859,0.1850128173828125,0.1926422119140625,0.0171661376953125,0.2676479790516695
1781025878.67035,-0.0698242112994194,0.21875,0.9697265028953552,0.9965422587132174,0.003814697265625,-0.05340576171875,-0.2841949462890625,0.2891945621830248
1781025878.680994,-0.06201171875,0.21484375,0.9687499403953552,0.9942231827876454,-0.057220458984375,0.255584716796875,0.0171661376953125,0.2624736266177914
1781025878.69164,-0.0566406212747097,0.2182617038488388,0.9584960341453552,0.9846628757182619,0.3681182861328125,0.0705718994140625,0.0171661376953125,0.3752147942920724
1781025878.702286,-0.0644531175494194,0.2353515625,0.9721679091453552,1.0023248006036178,0.2498626708984375,-0.1125335693359375,-0.4062652587890625,0.49004756813490163
1781025878.710379,-0.0517578087747097,0.2314452975988388,0.9624022841453552,0.9911931966463307,0.4329681396484375,-0.2956390380859375,-0.5283355712890625,0.7443133256098182
1781025878.718472,-0.0683593675494194,0.22412109375,0.9599608778953552,0.988143792615768,0.064849853515625,0.00762939453125,-0.6542205810546875,0.657471124717614
1781025878.726565,-0.0688476487994194,0.21337890625,0.9575194716453552,0.9834195925227719,0.3070831298828125,0.0095367431640625,-0.5283355712890625,0.6111705768589827
1781025878.734658,-0.0644531175494194,0.21435546875,0.9829100966453552,1.0080747638108263,0.1239776611328125,-0.2956390380859375,-0.1010894775390625,0.3361428026441463
1781025878.745208,-0.05712890625,0.22021484375,0.9580077528953552,0.9846507725812061,0.4329681396484375,-0.6008148193359375,-0.0400543212890625,0.7416496516133689
1781025878.755758,-0.0615234337747097,0.2211913913488388,0.9677733778953552,0.9946336388204715,0.247955322265625,-0.232696533203125,0.0171661376953125,0.34047642310147913
1781025878.766308,-0.0541992150247097,0.2177734225988388,0.9726561903953552,0.9982098392693355,0.3681182861328125,-0.2956390380859375,0.0820159912109375,0.47920782155558583
1781025878.776989,-0.0537109337747097,0.2358398288488388,0.9506835341453552,0.980971187840654,-0.057220458984375,0.255584716796875,-0.5893707275390625,0.6449461860236443
1781025878.787672,-0.0507812462747097,0.2319335788488388,0.9663085341453552,0.9950497993231235,-0.362396240234375,0.92315673828125,-1.3256072998046875,1.6555313683725723
1781025878.798355,-0.0541992112994194,0.240234375,0.9609374403953552,0.9919933839450223,-0.728607177734375,0.743865966796875,-1.1425018310546875,1.5458057542809234
1781025878.808995,-0.07958984375,0.2309570163488388,0.9609374403953552,0.9915021184962158,-1.705169677734375,-0.17547607421875,-1.4476776123046875,2.2436947099942492
1781025878.819634,-0.0644531175494194,0.224609375,0.9584960341453552,0.9865689145579765,-2.010345458984375,-1.02996826171875,-0.7724761962890625,2.387266838549947
1781025878.830273,-0.07080078125,0.2182617038488388,0.9658202528953552,0.9927032199481658,-2.1343231201171875,-1.2722015380859375,-0.7114410400390625,2.584565783265509
1781025878.838291,-0.0654296875,0.2172851413488388,0.9619140028953552,0.988317977992659,-2.010345458984375,-1.51824951171875,-0.1659393310546875,2.524699250580987
1781025878.846311,-0.07080078125,0.20654296875,0.9633788466453552,0.9878114955442707,-1.3408660888671875,-1.4553070068359375,-0.4062652587890625,2.020121732202965
1781025878.854331,-0.0629882737994194,0.19189453125,0.9736327528953552,0.9943599807265353,-1.4629364013671875,-1.2722015380859375,0.0171661376953125,1.9388074541420497
1781025878.862351,-0.0678710862994194,0.2041015625,0.9775390028953552,1.0009227914040373,-0.7915496826171875,-0.6008148193359375,0.3223419189453125,1.044717023836786
1781025878.872973,-0.0625,0.20947265625,0.9624022841453552,0.9869160046552228,-0.6694793701171875,-0.4787445068359375,0.4482269287109375,0.9371799770907032
1781025878.883595,-0.0585937425494194,0.21533203125,0.9584960341453552,0.9841319819112538,-0.606536865234375,-0.54168701171875,0.6313323974609375,1.0295107496461156
1781025878.894217,-0.0400390587747097,0.2172851413488388,0.9746093153953552,0.9993394200840636,-0.0553131103515625,-0.4177093505859375,0.7534027099609375,0.8632243538734147
1781025878.904908,-0.0444335900247097,0.2167968600988388,0.9682616591453552,0.9932300151737842,0.1239776611328125,-0.2346038818359375,0.4482269287109375,0.5208808130984408
1781025878.915599,-0.0610351525247097,0.2241210788488388,0.9731444716453552,1.000482738742653,0.247955322265625,-0.17547607421875,0.5054473876953125,0.5897039563976909
1781025878.92629,-0.0551757775247097,0.20166015625,0.9667968153953552,0.989144715045696,0.553131103515625,-0.35858154296875,0.2040863037109375,0.6900622870412899
1781025878.93428,-0.0478515625,0.21875,0.9663085341453552,0.9919140676973165,0.1239776611328125,0.3147125244140625,0.1430511474609375,0.36725749042453204
1781025878.942271,-0.0571289025247097,0.2231445163488388,0.9653319716453552,0.9924328703549393,0.4901885986328125,0.2536773681640625,0.0171661376953125,0.5522062528001837
1781025878.950262,-0.06591796875,0.2045898288488388,0.9760741591453552,0.9994613253267158,0.553131103515625,0.43487548828125,-0.1010894775390625,0.7108373867864501
1781025878.958253,-0.0732421800494194,0.21923828125,0.9697265028953552,0.9968948446659261,0.370025634765625,0.255584716796875,0.0820159912109375,0.4571314260233648
1781025878.968946,-0.0644531175494194,0.21923828125,0.9555663466453552,0.9825103923971718,0.6122589111328125,0.0095367431640625,0.4482269287109375,0.7588539407246656
1781025878.979639,-0.0624999962747097,0.2329101413488388,0.9687499403953552,0.9983134930939674,0.553131103515625,0.00762939453125,0.5702972412109375,0.7945131645669143
1781025878.990332,-0.0605468712747097,0.2329101413488388,0.9638671278953552,0.9934550305884677,0.6122589111328125,0.1316070556640625,0.6923675537109375,0.933570683340993
1781025878.998326,-0.05712890625,0.234375,0.9619140028953552,0.991702526728901,0.370025634765625,1.28936767578125,0.6923675537109375,1.5095564922072027
1781025879.006318,-0.0600585900247097,0.21630859375,0.9609374403953552,0.9868116366964039,0.0133514404296875,1.3904571533203125,0.6275177001953125,1.5255581995583087
1781025879.01431,-0.0620117150247097,0.2377929538488388,0.9541015028953552,0.9852414016512082,-0.2918243408203125,1.2683868408203125,0.9288787841796875,1.598994189970832
1781025879.022302,-0.0590820237994194,0.23046875,0.9677733778953552,0.9965901069275089,-0.8392333984375,1.2054443359375,0.8106231689453125,1.6776527251274909
1781025879.032949,-0.0502929650247097,0.2270507663488388,0.9643554091453552,0.9919993891018669,-0.7171630859375,0.8392333984375,0.5664825439453125,1.2407812303057726
1781025879.043596,-0.0566406212747097,0.2265624850988388,0.9648436903953552,0.9927044205241935,-0.8392333984375,0.4119873046875,0.6885528564453125,1.1610991656166263
1781025879.054243,-0.0629882737994194,0.228515625,0.9589843153953552,0.9878450438604576,-0.7171630859375,0.476837158203125,1.0547637939453125,1.3616986554640274
1781025879.064939,-0.0712890625,0.2216796725988388,0.9526366591453552,0.9806837472005341,-0.8392333984375,0.2288818359375,0.9288787841796875,1.2726018181560999
1781025879.075634,-0.06689453125,0.21435546875,0.9648436903953552,0.9906293414743567,-0.5950927734375,0.5340576171875,0.3833770751953125,0.8867530260781963
1781025879.086329,-0.0585937425494194,0.21337890625,0.9638671278953552,0.9889406577422303,-0.6542205810546875,0.2918243408203125,0.4405975341796875,0.841006659721529
1781025879.09432,-0.0537109300494194,0.21337890625,0.9726561903953552,0.9972339175708101,-0.3509521484375,0.476837158203125,-0.3490447998046875,0.6872942297203022
1781025879.102309,-0.06640625,0.2158203125,0.9692382216453552,0.9951939145839422,-0.3509521484375,0.5340576171875,-0.1049041748046875,0.647603146116771
1781025879.110298,-0.0605468675494194,0.224609375,0.9599608778953552,0.987744998265017,-0.2918243408203125,0.4138946533203125,-0.1659393310546875,0.532922219027532
1781025879.118287,-0.046875,0.21484375,0.9667968153953552,0.9914893770473101,-0.1087188720703125,0.2307891845703125,-0.1659393310546875,0.3043341953342541
1781025879.128933,-0.0556640587747097,0.2275390475988388,0.9521483778953552,0.9805401772238693,-0.2307891845703125,0.1087188720703125,-0.7190704345703125,0.7629847513102793
1781025879.139579,-0.0507812462747097,0.2187499850988388,0.9692382216453552,0.9949135747652685,0.1964569091796875,0.0476837158203125,-0.5931854248046875,0.6266881218912529
1781025879.150225,-0.0615234337747097,0.2319335788488388,0.9702147841453552,0.999447369937647,0.1964569091796875,0.1087188720703125,-0.5931854248046875,0.6342586684542786
1781025879.160925,-0.0703125,0.21142578125,0.9643554091453552,0.9897606093300179,0.6256103515625,-0.0762939453125,-0.2307891845703125,0.6711726497616923
1781025879.171625,-0.0693359375,0.2319335788488388,0.9775390028953552,1.0070666112071633,-0.1678466796875,0.1678466796875,-0.4138946533203125,0.477130799478904
1781025879.182325,-0.0581054612994194,0.2255859375,0.9702147841453552,0.99778854834318,0.3223419189453125,0.2918243408203125,-0.2880096435546875,0.521550873247332
